{
  "resourceType": "Bundle",
  "id": "GMTP-USCorePatient1",
  "type": "transaction",
  "entry": [
    {
      "resource": {
        "resourceType": "Condition",
        "id": "related-Condition-GMTP-1",
        "meta": {
          "profile": [
            "http://hl7.org/fhir/us/core/StructureDefinition/us-core-condition"
          ]
        },
        "clinicalStatus": {
          "coding": [
            {
              "code": "active",
              "system": "http://terminology.hl7.org/CodeSystem/condition-clinical"
            }
          ]
        },
        "verificationStatus": {
          "coding": [
            {
              "code": "confirmed",
              "system": "http://terminology.hl7.org/CodeSystem/condition-ver-status"
            }
          ]
        },
        "category": [
          {
            "coding": [
              {
                "code": "problem-list-item",
                "system": "http://terminology.hl7.org/CodeSystem/condition-category",
                "display": "Problem List Item"
              }
            ]
          }
        ],
        "code": {
          "coding": [
            {
              "code": "E11.618",
              "system": "http://hl7.org/fhir/sid/icd-10-cm",
              "display": "Type 2 diabetes mellitus with other diabetic arthropathy"
            }
          ],
          "text": "Type 2 diabetes mellitus with other diabetic arthropathy"
        },
        "subject": {
          "reference": "Patient/USCorePatient-GMTP-1"
        },
        "onsetDateTime": "2012-05-24T00:00:00+00:00",
        "recordedDate": "2012-05-24T00:00:00+00:00"
      },
      "request": {
        "method": "PUT",
        "url": "Condition/related-Condition-GMTP-1"
      }
    },
    {
      "resource": {
        "resourceType": "Coverage",
        "id": "coverage-GMTP-1",
        "identifier": [
          {
            "type": {
              "coding": [
                {
                  "code": "MB",
                  "system": "http://terminology.hl7.org/CodeSystem/v2-0203"
                }
              ]
            },
            "value": "member-id-from-identifier-slice-USCorePatient-GMTP-1"
          }
        ],
        "status": "active",
        "policyHolder": {
          "reference": "Patient/USCorePatient-GMTP-1"
        },
        "subscriber": {
          "reference": "Patient/USCorePatient-GMTP-1"
        },
        "subscriberId": "subscriber-id-USCorePatient-GMTP-1",
        "beneficiary": {
          "reference": "Patient/USCorePatient-GMTP-1"
        },
        "payor": [
          {
            "reference": "Organization/billing-provider-GMTP-1"
          }
        ]
      },
      "request": {
        "method": "PUT",
        "url": "Coverage/coverage-GMTP-1"
      }
    },
    {
      "resource": {
        "resourceType": "Organization",
        "id": "billing-provider-GMTP-1",
        "meta": {
          "profile": [
            "http://hl7.org/fhir/us/core/StructureDefinition/us-core-organization"
          ]
        },
        "identifier": [
          {
            "system": "http://hl7.org/fhir/sid/us-npi",
            "value": "1144221849"
          }
        ],
        "active": true,
        "name": "Oak Street Billing Provider",
        "telecom": [
          {
            "system": "phone",
            "value": "+1 (123) 4567890",
            "use": "mobile"
          },
          {
            "system": "fax",
            "value": "+1 (123) 4567890"
          }
        ],
        "address": [
          {
            "line": [
              "456 Oak Street"
            ],
            "city": "Anytown",
            "state": "MA",
            "postalCode": "54321",
            "country": "USA"
          }
        ]
      },
      "request": {
        "method": "PUT",
        "url": "Organization/billing-provider-GMTP-1"
      }
    },
    {
      "resource": {
        "resourceType": "Organization",
        "id": "servicing-provider-GMTP-1",
        "meta": {
          "profile": [
            "http://hl7.org/fhir/us/core/StructureDefinition/us-core-organization"
          ]
        },
        "identifier": [
          {
            "system": "http://hl7.org/fhir/sid/us-npi",
            "value": "1564221867"
          }
        ],
        "active": true,
        "name": "Healthcare Clinic",
        "telecom": [
          {
            "system": "phone",
            "value": "+1 (987) 6543210",
            "use": "mobile"
          },
          {
            "system": "fax",
            "value": "+1 (987) 6543210"
          }
        ],
        "address": [
          {
            "line": [
              "789 Elm Street"
            ],
            "city": "Metropolis",
            "state": "NY",
            "postalCode": "67890",
            "country": "USA"
          }
        ]
      },
      "request": {
        "method": "PUT",
        "url": "Organization/servicing-provider-GMTP-1"
      }
    },
    {
      "resource": {
        "resourceType": "Patient",
        "id": "USCorePatient-GMTP-1",
        "meta": {
          "profile": [
            "http://hl7.org/fhir/us/core/StructureDefinition/us-core-patient"
          ]
        },
        "identifier": [
          {
            "use": "usual",
            "type": {
              "coding": [
                {
                  "code": "MR",
                  "system": "http://terminology.hl7.org/CodeSystem/v2-0203",
                  "display": "Medical Record Number"
                }
              ]
            },
            "system": "urn:oid:1.2.36.146.595.217.0.1",
            "value": "12345678",
            "period": {
              "start": "2002-05-06"
            },
            "assigner": {
              "display": "Acme Healthcare"
            }
          }
        ],
        "active": true,
        "name": [
          {
            "family": "Smith",
            "given": [
              "Emilia"
            ],
            "use": "official"
          }
        ],
        "telecom": [
          {
            "system": "phone",
            "value": "+1 (555) 1234567",
            "use": "mobile"
          }
        ],
        "gender": "female",
        "birthDate": "1990-05-15",
        "deceasedBoolean": false,
        "address": [
          {
            "use": "home",
            "type": "both",
            "text": "123 Maple Street, Cityville, State, 12345",
            "line": [
              "123 Maple Street"
            ],
            "city": "Cityville",
            "state": "MA",
            "postalCode": "12345",
            "period": {
              "start": "1990-05-15"
            }
          }
        ]
      },
      "request": {
        "method": "PUT",
        "url": "Patient/USCorePatient-GMTP-1"
      }
    },
    {
      "resource": {
        "resourceType": "Practitioner",
        "id": "requesting-provider-USCorePatient-GMTP-1",
        "meta": {
          "profile": [
            "http://hl7.org/fhir/us/core/StructureDefinition/us-core-practitioner"
          ]
        },
        "identifier": [
          {
            "system": "http://hl7.org/fhir/sid/us-npi",
            "value": "1144221867"
          }
        ],
        "name": [
          {
            "family": "Smart",
            "given": [
              "Braden"
            ],
            "suffix": [
              "PharmD"
            ]
          }
        ],
        "telecom": [
          {
            "system": "phone",
            "value": "345-416-5672",
            "use": "mobile"
          },
          {
            "system": "fax",
            "value": "345-416-5672"
          }
        ],
        "address": [
          {
            "line": [
              "8914 115TH ST"
            ],
            "city": "RICHMOND HIL",
            "state": "NY",
            "postalCode": "123456",
            "country": "USA"
          }
        ]
      },
      "request": {
        "method": "PUT",
        "url": "Practitioner/requesting-provider-USCorePatient-GMTP-1"
      }
    },
    {
      "resource": {
        "resourceType": "ResearchStudy",
        "id": "research-study-GMTP-1",
        "identifier": [
          {
            "system": "https://clinicaltrials.gov",
            "value": "NCT02326129"
          }
        ],
        "title": "Clinical Study on Treatment X",
        "status": "active",
        "period": {
          "start": "2023-11-01",
          "end": "2025-11-30"
        },
        "sponsor": {
          "reference": "Organization/billing-provider-GMTP-1"
        },
        "condition": [
          {
            "coding": [
              {
                "code": "E11.618",
                "system": "http://hl7.org/fhir/sid/icd-10-cm",
                "display": "Type 2 diabetes mellitus with other diabetic arthropathy"
              }
            ]
          }
        ]
      },
      "request": {
        "method": "PUT",
        "url": "ResearchStudy/research-study-GMTP-1"
      }
    },
    {
      "resource": {
        "resourceType": "ResearchSubject",
        "id": "research-subject-GMTP-1",
        "individual": {
          "reference": "Patient/USCorePatient-GMTP-1"
        },
        "study": {
          "reference": "ResearchStudy/research-study-GMTP-1"
        },
        "status": "on-study"
      },
      "request": {
        "method": "PUT",
        "url": "ResearchSubject/research-subject-GMTP-1"
      }
    },
    {
      "resource": {
        "resourceType": "ServiceRequest",
        "id": "service-request-2-USCorePatient-GMTP-1",
        "status": "active",
        "intent": "order",
        "subject": {
          "reference": "Patient/USCorePatient-GMTP-1"
        },
        "code": {
          "coding": [
            {
              "code": "405825005",
              "system": "http://snomed.info/sct",
              "display": "Molecular genetic test (procedure)"
            },
            {
              "code": "Z13.89",
              "system": "http://hl7.org/fhir/sid/icd-10-cm",
              "display": " Encounter for screening for other disorder"
            },
            {
              "code": "81479",
              "system": "http://www.ama-assn.org/go/cpt",
              "display": "Unlisted molecular pathology procedure"
            }
          ]
        },
        "reasonReference": [
          {
            "reference": "Condition/related-Condition-GMTP-1"
          }
        ],
        "occurrenceDateTime": "2023-12-10T19:32:52-05:00",
        "requester": {
          "reference": "Practitioner/requesting-provider-USCorePatient-GMTP-1"
        },
        "performer": [
          {
            "reference": "Organization/servicing-provider-GMTP-1"
          }
        ],
        "authoredOn": "2023-11-10T19:32:52-05:00",
        "insurance": [
          {
            "reference": "Coverage/coverage-GMTP-1"
          }
        ]
      },
      "request": {
        "method": "PUT",
        "url": "ServiceRequest/service-request-2-USCorePatient-GMTP-1"
      }
    },
    {
      "resource": {
        "resourceType": "ServiceRequest",
        "id": "service-request-USCorePatient-GMTP-1",
        "status": "active",
        "intent": "order",
        "subject": {
          "reference": "Patient/USCorePatient-GMTP-1"
        },
        "code": {
          "coding": [
            {
              "code": "405825005",
              "system": "http://snomed.info/sct",
              "display": "Molecular genetic test (procedure)"
            },
            {
              "code": "Z13.89",
              "system": "http://hl7.org/fhir/sid/icd-10-cm",
              "display": " Encounter for screening for other disorder"
            },
            {
              "code": "81479",
              "system": "http://www.ama-assn.org/go/cpt",
              "display": "Unlisted molecular pathology procedure"
            }
          ]
        },
        "reasonReference": [
          {
            "reference": "Condition/related-Condition-GMTP-1"
          }
        ],
        "occurrenceDateTime": "2023-12-15T19:32:52-05:00",
        "requester": {
          "reference": "Practitioner/requesting-provider-USCorePatient-GMTP-1"
        },
        "performer": [
          {
            "reference": "Organization/servicing-provider-GMTP-1"
          }
        ],
        "authoredOn": "2023-11-29T19:32:52-05:00",
        "insurance": [
          {
            "reference": "Coverage/coverage-GMTP-1"
          }
        ]
      },
      "request": {
        "method": "PUT",
        "url": "ServiceRequest/service-request-USCorePatient-GMTP-1"
      }
    }
  ]
}