{
  "resourceType": "Bundle",
  "id": "ecqm-content-qicore-2024-subset-simplified-bundle",
  "type": "transaction",
  "timestamp": "2022-10-21T15:18:28.504-04:00",
  "entry": [
    {
      "fullUrl": "http://hl7.org/fhir/us/cqfmeasures/Library/ecqm-update-2024-05-02|1.0.0",
      "resource": {
        "resourceType": "Library",
        "id": "ecqm-update-2024-05-02",
        "meta": {
          "profile": [
            "http://hl7.org/fhir/uv/crmi/StructureDefinition/crmi-manifestlibrary"
          ]
        },
        "contained": [
          {
            "resourceType": "Parameters",
            "id": "exp-params",
            "parameter": [
              {
                "name": "system-version",
                "valueUri": "http://snomed.info/sct|http://snomed.info/sct/731000124108/version/20230901"
              },
              {
                "name": "system-version",
                "valueUri": "http://loinc.org|2.76"
              },
              {
                "name": "system-version",
                "valueUri": "http://terminology.hl7.org/CodeSystem/v3-ActCode|9.0.0"
              },
              {
                "name": "system-version",
                "valueUri": "http://terminology.hl7.org/CodeSystem/v3-AdministrativeGender|3.0.0"
              },
              {
                "name": "system-version",
                "valueUri": "http://terminology.hl7.org/CodeSystem/CD2|2.0.1"
              },
              {
                "name": "system-version",
                "valueUri": "urn:oid:2.16.840.1.113883.6.238|1.2"
              },
              {
                "name": "system-version",
                "valueUri": "http://www.ama-assn.org/go/cpt|3.0.1"
              },
              {
                "name": "system-version",
                "valueUri": "http://hl7.org/fhir/sid/cvx|4.0.0"
              },
              {
                "name": "system-version",
                "valueUri": "http://terminology.hl7.org/CodeSystem/HCPCS-all-codes|3.0.0"
              },
              {
                "name": "system-version",
                "valueUri": "http://www.cms.gov/Medicare/Coding/HCPCSReleaseCodeSets|1.0.2"
              },
              {
                "name": "system-version",
                "valueUri": "http://hl7.org/fhir/sid/icd-10-cm|2.0.1"
              },
              {
                "name": "system-version",
                "valueUri": "http://www.cms.gov/Medicare/Coding/ICD10|2.0.1"
              },
              {
                "name": "system-version",
                "valueUri": "http://terminology.hl7.org/CodeSystem/icd9cm|2.0.1"
              },
              {
                "name": "system-version",
                "valueUri": "http://terminology.hl7.org/CodeSystem/v2-0895|2.2.0"
              },
              {
                "name": "system-version",
                "valueUri": "http://www.nlm.nih.gov/research/umls/rxnorm|3.0.1"
              },
              {
                "name": "system-version",
                "valueUri": "https://nahdo.org/sopt|1.0.1"
              }
            ]
          }
        ],
        "extension": [
          {
            "url": "http://hl7.org/fhir/StructureDefinition/cqf-expansionParameters",
            "valueReference": {
              "reference": "#exp-params"
            }
          }
        ],
        "url": "http://hl7.org/fhir/us/cqfmeasures/Library/ecqm-update-2024-05-02",
        "identifier": [
          {
            "use": "official",
            "system": "http://example.org/fhir/cqi/ecqm/Library/Identifier",
            "value": "eCQM Update 2024-05-02"
          }
        ],
        "version": "1.0.0",
        "name": "ECQMUpdate20240502",
        "title": "eCQM Update 2024-05-02",
        "status": "draft",
        "experimental": true,
        "type": {
          "coding": [
            {
              "system": "http://terminology.hl7.org/CodeSystem/library-type",
              "code": "asset-collection"
            }
          ]
        },
        "date": "2024-04-23",
        "publisher": "Clinical Quality Information WG",
        "contact": [
          {
            "telecom": [
              {
                "system": "url",
                "value": "http://www.hl7.org/Special/committees/cqi"
              }
            ]
          }
        ],
        "description": "This library is an example final draft of a version manifest (also referred to as an expansion profile) that specifies expansion rules for a set of value sets used for an example set of EP/EC measures.",
        "useContext": [
          {
            "code": {
              "system": "http://terminology.hl7.org/CodeSystem/usage-context-type",
              "code": "program"
            },
            "valueCodeableConcept": {
              "coding": [
                {
                  "system": "http://hl7.org/fhir/us/cqfmeasures/CodeSystem/quality-programs",
                  "code": "ep-ec",
                  "display": "EP/EC"
                }
              ]
            }
          },
          {
            "code": {
              "system": "http://terminology.hl7.org/CodeSystem/usage-context-type",
              "code": "program"
            },
            "valueCodeableConcept": {
              "coding": [
                {
                  "system": "http://hl7.org/fhir/us/cqfmeasures/CodeSystem/quality-programs",
                  "code": "eh-cah",
                  "display": "EH/CAH"
                }
              ]
            }
          }
        ],
        "jurisdiction": [
          {
            "coding": [
              {
                "system": "urn:iso:std:iso:3166",
                "code": "US"
              }
            ]
          }
        ],
        "purpose": "This library is defined to illustrate a Version Manifest in final draft status, as it would look at the end of an eCQM Annual Update cycle, approved on April 23rd, 2024. The latest available version of code systems used at that time is specified to provide stability for value set expansion during the testing and implementation phase. Terminology.HL7.org, in particular, was version 5.5.0 at the time, and FHIR code system versions are chosen from that release.",
        "approvalDate": "2024-04-23",
        "lastReviewDate": "2024-04-23",
        "relatedArtifact": [
          {
            "type": "composed-of",
            "display": "Measure Cervical Cancer ScreeningFHIR, 0.0.001",
            "resource": "https://madie.cms.gov/Measure/CervicalCancerScreeningFHIR|0.0.001"
          },
          {
            "type": "composed-of",
            "display": "Measure Breast Cancer ScreeningFHIR, 0.0.001",
            "resource": "https://madie.cms.gov/Measure/BreastCancerScreeningFHIR|0.0.001"
          }
        ]
      },
      "request": {
        "method": "PUT",
        "url": "Library/ecqm-update-2024-05-02"
      }
    },
    {
      "fullUrl": "https://madie.cms.gov/Measure/CervicalCancerScreeningFHIR|0.0.001",
      "resource": {
        "resourceType": "Measure",
        "id": "CervicalCancerScreeningFHIR",
        "meta": {
          "profile": [
            "http://hl7.org/fhir/us/cqfmeasures/StructureDefinition/computable-measure-cqfm",
            "http://hl7.org/fhir/us/cqfmeasures/StructureDefinition/publishable-measure-cqfm",
            "http://hl7.org/fhir/us/cqfmeasures/StructureDefinition/executable-measure-cqfm"
          ]
        },
        "contained": [
          {
            "resourceType": "Library",
            "id": "effective-data-requirements",
            "extension": [
              {
                "url": "http://hl7.org/fhir/us/cqfmeasures/StructureDefinition/cqfm-directReferenceCode",
                "valueCoding": {
                  "system": "http://terminology.hl7.org/CodeSystem/observation-category",
                  "code": "laboratory",
                  "display": "laboratory"
                }
              },
              {
                "url": "http://hl7.org/fhir/us/cqfmeasures/StructureDefinition/cqfm-directReferenceCode",
                "valueCoding": {
                  "system": "http://snomed.info/sct",
                  "code": "428361000124107",
                  "display": "Discharge to home for hospice care (procedure)"
                }
              },
              {
                "url": "http://hl7.org/fhir/us/cqfmeasures/StructureDefinition/cqfm-directReferenceCode",
                "valueCoding": {
                  "system": "http://snomed.info/sct",
                  "code": "428371000124100",
                  "display": "Discharge to healthcare facility for hospice care (procedure)"
                }
              },
              {
                "url": "http://hl7.org/fhir/us/cqfmeasures/StructureDefinition/cqfm-directReferenceCode",
                "valueCoding": {
                  "system": "http://terminology.hl7.org/CodeSystem/observation-category",
                  "code": "survey",
                  "display": "survey"
                }
              },
              {
                "url": "http://hl7.org/fhir/us/cqfmeasures/StructureDefinition/cqfm-directReferenceCode",
                "valueCoding": {
                  "system": "http://snomed.info/sct",
                  "code": "373066001",
                  "display": "Yes (qualifier value)"
                }
              },
              {
                "url": "http://hl7.org/fhir/us/cqfmeasures/StructureDefinition/cqfm-directReferenceCode",
                "valueCoding": {
                  "system": "http://loinc.org",
                  "code": "45755-6",
                  "display": "Hospice care [Minimum Data Set]"
                }
              },
              {
                "url": "http://hl7.org/fhir/us/cqfmeasures/StructureDefinition/cqfm-directReferenceCode",
                "valueCoding": {
                  "system": "http://loinc.org",
                  "code": "71007-9",
                  "display": "Functional Assessment of Chronic Illness Therapy - Palliative Care Questionnaire (FACIT-Pal)"
                }
              },
              {
                "url": "http://hl7.org/fhir/us/cqfmeasures/StructureDefinition/cqfm-logicDefinition",
                "extension": [
                  {
                    "url": "libraryName",
                    "valueString": "CervicalCancerScreeningFHIR"
                  },
                  {
                    "url": "name",
                    "valueString": "Cervical Cytology Within 3 Years"
                  },
                  {
                    "url": "statement",
                    "valueString": "define \"Cervical Cytology Within 3 Years\":\n  ( ( [Observation: \"Pap Test\"] ).isLaboratoryTestPerformed ( ) ) CervicalCytology\n    where CervicalCytology.effective.latest ( ) during day of Interval[start of \"Measurement Period\" - 2 years, end of \"Measurement Period\"]\n      and CervicalCytology.value is not null"
                  },
                  {
                    "url": "displaySequence",
                    "valueInteger": 0
                  }
                ]
              },
              {
                "url": "http://hl7.org/fhir/us/cqfmeasures/StructureDefinition/cqfm-logicDefinition",
                "extension": [
                  {
                    "url": "libraryName",
                    "valueString": "CervicalCancerScreeningFHIR"
                  },
                  {
                    "url": "name",
                    "valueString": "HPV Test Within 5 Years for Women Age 30 and Older"
                  },
                  {
                    "url": "statement",
                    "valueString": "define \"HPV Test Within 5 Years for Women Age 30 and Older\":\n  ( ( [Observation: \"HPV Test\"] ).isLaboratoryTestPerformed ( ) ) HPVTest\n    where AgeInYearsAt(date from HPVTest.effective.latest()) >= 30\n      and HPVTest.effective.latest ( ) during day of Interval[start of \"Measurement Period\" - 4 years, end of \"Measurement Period\"]\n      and HPVTest.value is not null"
                  },
                  {
                    "url": "displaySequence",
                    "valueInteger": 1
                  }
                ]
              },
              {
                "url": "http://hl7.org/fhir/us/cqfmeasures/StructureDefinition/cqfm-logicDefinition",
                "extension": [
                  {
                    "url": "libraryName",
                    "valueString": "CervicalCancerScreeningFHIR"
                  },
                  {
                    "url": "name",
                    "valueString": "Numerator"
                  },
                  {
                    "url": "statement",
                    "valueString": "define \"Numerator\":\n  exists \"Cervical Cytology Within 3 Years\"\n    or exists \"HPV Test Within 5 Years for Women Age 30 and Older\""
                  },
                  {
                    "url": "displaySequence",
                    "valueInteger": 2
                  }
                ]
              },
              {
                "url": "http://hl7.org/fhir/us/cqfmeasures/StructureDefinition/cqfm-logicDefinition",
                "extension": [
                  {
                    "url": "libraryName",
                    "valueString": "CervicalCancerScreeningFHIR"
                  },
                  {
                    "url": "name",
                    "valueString": "Qualifying Encounters"
                  },
                  {
                    "url": "statement",
                    "valueString": "define \"Qualifying Encounters\":\n  ( ( [\"Encounter\": \"Office Visit\"]\n      union [Encounter: \"Preventive Care Services Established Office Visit, 18 and Up\"]\n      union [Encounter: \"Preventive Care Services Initial Office Visit, 18 and Up\"]\n      union [Encounter: \"Home Healthcare Services\"]\n      union [Encounter: \"Telephone Visits\"]\n      union [Encounter: \"Virtual Encounter\"]\n  ).isEncounterPerformed ( ) ) ValidEncounters\n    where ValidEncounters.period.toInterval ( ) during day of \"Measurement Period\""
                  },
                  {
                    "url": "displaySequence",
                    "valueInteger": 3
                  }
                ]
              },
              {
                "url": "http://hl7.org/fhir/us/cqfmeasures/StructureDefinition/cqfm-logicDefinition",
                "extension": [
                  {
                    "url": "libraryName",
                    "valueString": "CervicalCancerScreeningFHIR"
                  },
                  {
                    "url": "name",
                    "valueString": "Initial Population"
                  },
                  {
                    "url": "statement",
                    "valueString": "define \"Initial Population\":\n  AgeInYearsAt(date from \n    end of \"Measurement Period\"\n  ) in Interval[24, 64]\n    and Patient.gender = 'female'\n    and exists \"Qualifying Encounters\""
                  },
                  {
                    "url": "displaySequence",
                    "valueInteger": 4
                  }
                ]
              },
              {
                "url": "http://hl7.org/fhir/us/cqfmeasures/StructureDefinition/cqfm-logicDefinition",
                "extension": [
                  {
                    "url": "libraryName",
                    "valueString": "CervicalCancerScreeningFHIR"
                  },
                  {
                    "url": "name",
                    "valueString": "Denominator"
                  },
                  {
                    "url": "statement",
                    "valueString": "define \"Denominator\":\n  \"Initial Population\""
                  },
                  {
                    "url": "displaySequence",
                    "valueInteger": 5
                  }
                ]
              },
              {
                "url": "http://hl7.org/fhir/us/cqfmeasures/StructureDefinition/cqfm-logicDefinition",
                "extension": [
                  {
                    "url": "libraryName",
                    "valueString": "Hospice"
                  },
                  {
                    "url": "name",
                    "valueString": "Has Hospice Services"
                  },
                  {
                    "url": "statement",
                    "valueString": "define \"Has Hospice Services\":\n  exists ((([Encounter: \"Encounter Inpatient\"]).isEncounterPerformed()) InpatientEncounter\n      where (InpatientEncounter.hospitalization.dischargeDisposition ~ \"Discharge to home for hospice care (procedure)\"\n          or InpatientEncounter.hospitalization.dischargeDisposition ~ \"Discharge to healthcare facility for hospice care (procedure)\"\n      )\n        and InpatientEncounter.period.toInterval() ends during day of \"Measurement Period\"\n  )\n    or exists ((([Encounter: \"Hospice Encounter\"]).isEncounterPerformed()) HospiceEncounter\n        where HospiceEncounter.period.toInterval() overlaps day of \"Measurement Period\"\n    )\n    or exists ((([Observation: \"Hospice care [Minimum Data Set]\"]).isAssessmentPerformed()) HospiceAssessment\n        where HospiceAssessment.value ~ \"Yes (qualifier value)\"\n          and HospiceAssessment.effective.toInterval() overlaps day of \"Measurement Period\"\n    )\n    or exists ((([ServiceRequest: \"Hospice Care Ambulatory\"]).isInterventionOrder()) HospiceOrder\n        where HospiceOrder.authoredOn.toInterval() during day of \"Measurement Period\"\n        // and HospiceOrder.doNotPerform is not true\n        // https://oncprojectracking.healthit.gov/support/browse/CQLIT-447\n    )\n    or exists ((([Procedure: \"Hospice Care Ambulatory\"]).isInterventionPerformed()) HospicePerformed\n        where HospicePerformed.performed.toInterval() overlaps day of \"Measurement Period\"\n    )\n    or exists (([Condition: \"Hospice Diagnosis\"]) HospiceCareDiagnosis\n        where HospiceCareDiagnosis.prevalenceInterval() overlaps day of \"Measurement Period\"\n    )"
                  },
                  {
                    "url": "displaySequence",
                    "valueInteger": 6
                  }
                ]
              },
              {
                "url": "http://hl7.org/fhir/us/cqfmeasures/StructureDefinition/cqfm-logicDefinition",
                "extension": [
                  {
                    "url": "libraryName",
                    "valueString": "CervicalCancerScreeningFHIR"
                  },
                  {
                    "url": "name",
                    "valueString": "Absence of Cervix"
                  },
                  {
                    "url": "statement",
                    "valueString": "define \"Absence of Cervix\":\n  ( ( ( [Procedure: \"Hysterectomy with No Residual Cervix\"] ).isProcedurePerformed ( ) ) NoCervixProcedure\n      where NoCervixProcedure.performed.toInterval ( ) ends on or before end of \"Measurement Period\"\n  )\n    union ( [Condition: \"Congenital or Acquired Absence of Cervix\"] NoCervixDiagnosis\n        where NoCervixDiagnosis.prevalenceInterval ( ) starts on or before end of \"Measurement Period\"\n    )"
                  },
                  {
                    "url": "displaySequence",
                    "valueInteger": 7
                  }
                ]
              },
              {
                "url": "http://hl7.org/fhir/us/cqfmeasures/StructureDefinition/cqfm-logicDefinition",
                "extension": [
                  {
                    "url": "libraryName",
                    "valueString": "PalliativeCare"
                  },
                  {
                    "url": "name",
                    "valueString": "Has Palliative Care in the Measurement Period"
                  },
                  {
                    "url": "statement",
                    "valueString": "define \"Has Palliative Care in the Measurement Period\":\n  exists ((([Observation: \"Functional Assessment of Chronic Illness Therapy - Palliative Care Questionnaire (FACIT-Pal)\"]).isAssessmentPerformed()) PalliativeAssessment\n      where PalliativeAssessment.effective.toInterval() overlaps day of \"Measurement Period\"\n  )\n    or exists ([Condition: \"Palliative Care Diagnosis\"] PalliativeDiagnosis\n        where PalliativeDiagnosis.prevalenceInterval() overlaps day of \"Measurement Period\"\n    )\n    or exists ((([Encounter: \"Palliative Care Encounter\"]).isEncounterPerformed()) PalliativeEncounter\n        where PalliativeEncounter.period.toInterval() overlaps day of \"Measurement Period\"\n    )\n    or exists ((([Procedure: \"Palliative Care Intervention\"]).isInterventionPerformed()) PalliativeIntervention\n        where PalliativeIntervention.performed.toInterval() overlaps day of \"Measurement Period\"\n    )"
                  },
                  {
                    "url": "displaySequence",
                    "valueInteger": 8
                  }
                ]
              },
              {
                "url": "http://hl7.org/fhir/us/cqfmeasures/StructureDefinition/cqfm-logicDefinition",
                "extension": [
                  {
                    "url": "libraryName",
                    "valueString": "CervicalCancerScreeningFHIR"
                  },
                  {
                    "url": "name",
                    "valueString": "Denominator Exclusions"
                  },
                  {
                    "url": "statement",
                    "valueString": "define \"Denominator Exclusions\":\n  Hospice.\"Has Hospice Services\"\n    or exists \"Absence of Cervix\"\n    or PalliativeCare.\"Has Palliative Care in the Measurement Period\""
                  },
                  {
                    "url": "displaySequence",
                    "valueInteger": 9
                  }
                ]
              },
              {
                "url": "http://hl7.org/fhir/us/cqfmeasures/StructureDefinition/cqfm-logicDefinition",
                "extension": [
                  {
                    "url": "libraryName",
                    "valueString": "Status"
                  },
                  {
                    "url": "name",
                    "valueString": "isLaboratoryTestPerformed"
                  },
                  {
                    "url": "statement",
                    "valueString": "//Laboratory Test, Performed\ndefine fluent function isLaboratoryTestPerformed(Obs List<Observation>):\n  Obs O\n    where O.status in { 'final', 'amended', 'corrected' }\n      and exists ( O.category ObservationCategory\n          where ( ObservationCategory ) ~ \"laboratory\"\n      )"
                  },
                  {
                    "url": "displaySequence",
                    "valueInteger": 10
                  }
                ]
              },
              {
                "url": "http://hl7.org/fhir/us/cqfmeasures/StructureDefinition/cqfm-logicDefinition",
                "extension": [
                  {
                    "url": "libraryName",
                    "valueString": "FHIRHelpers"
                  },
                  {
                    "url": "name",
                    "valueString": "ToConcept"
                  },
                  {
                    "url": "statement",
                    "valueString": "/*\n@description: Converts the given FHIR [CodeableConcept](https://hl7.org/fhir/datatypes.html#CodeableConcept) value to a CQL Concept.\n*/\ndefine function ToConcept(concept FHIR.CodeableConcept):\n    if concept is null then\n        null\n    else\n        System.Concept {\n            codes: concept.coding C return ToCode(C),\n            display: concept.text.value\n        }"
                  },
                  {
                    "url": "displaySequence",
                    "valueInteger": 11
                  }
                ]
              },
              {
                "url": "http://hl7.org/fhir/us/cqfmeasures/StructureDefinition/cqfm-logicDefinition",
                "extension": [
                  {
                    "url": "libraryName",
                    "valueString": "QICoreCommon"
                  },
                  {
                    "url": "name",
                    "valueString": "latest"
                  },
                  {
                    "url": "statement",
                    "valueString": "/*\n@description: Given an interval, returns the ending point if the interval has an ending boundary specified,\notherwise, returns the starting point\n*/\ndefine fluent function latest(choice Choice<DateTime, Quantity, Interval<DateTime>, Interval<Quantity>> ):\n  (choice.toInterval()) period\n    return\n      if (period.\"hasEnd\"()) then end of period\n      else start of period"
                  },
                  {
                    "url": "displaySequence",
                    "valueInteger": 12
                  }
                ]
              },
              {
                "url": "http://hl7.org/fhir/us/cqfmeasures/StructureDefinition/cqfm-logicDefinition",
                "extension": [
                  {
                    "url": "libraryName",
                    "valueString": "Status"
                  },
                  {
                    "url": "name",
                    "valueString": "isEncounterPerformed"
                  },
                  {
                    "url": "statement",
                    "valueString": "//Encounter, Performed\n//General usage unless required otherwise by measure intent (e.g., follow-up encounters)\ndefine fluent function isEncounterPerformed(Enc List<Encounter>):\n  Enc E\n    where E.status in {'finished', 'arrived', 'triaged', 'in-progress', 'onleave'}"
                  },
                  {
                    "url": "displaySequence",
                    "valueInteger": 13
                  }
                ]
              },
              {
                "url": "http://hl7.org/fhir/us/cqfmeasures/StructureDefinition/cqfm-logicDefinition",
                "extension": [
                  {
                    "url": "libraryName",
                    "valueString": "QICoreCommon"
                  },
                  {
                    "url": "name",
                    "valueString": "toInterval"
                  },
                  {
                    "url": "statement",
                    "valueString": "/*\n@description: Normalizes a value that is a choice of timing-valued types to an equivalent interval\n@comment: Normalizes a choice type of DateTime, Quanitty, Interval<DateTime>, or Interval<Quantity> types\nto an equivalent interval. This selection of choice types is a superset of the majority of choice types that are used as possible\nrepresentations for timing-valued elements in QICore, allowing this function to be used across any resource.\nThe input can be provided as a DateTime, Quantity, Interval<DateTime> or Interval<Quantity>.\nThe intent of this function is to provide a clear and concise mechanism to treat single\nelements that have multiple possible representations as intervals so that logic doesn't have to account\nfor the variability. More complex calculations (such as medication request period or dispense period\ncalculation) need specific guidance and consideration. That guidance may make use of this function, but\nthe focus of this function is on single element calculations where the semantics are unambiguous.\nIf the input is a DateTime, the result a DateTime Interval beginning and ending on that DateTime.\nIf the input is a Quantity, the quantity is expected to be a calendar-duration interpreted as an Age,\nand the result is a DateTime Interval beginning on the Date the patient turned that age and ending immediately before one year later.\nIf the input is a DateTime Interval, the result is the input.\nIf the input is a Quantity Interval, the quantities are expected to be calendar-durations interpreted as an Age, and the result\nis a DateTime Interval beginning on the date the patient turned the age given as the start of the quantity interval, and ending\nimmediately before one year later than the date the patient turned the age given as the end of the quantity interval.\nIf the input is a Timing, an error will be thrown indicating that Timing calculations are not implemented. Any other input will reslt in a null DateTime Interval\n*/\ndefine fluent function toInterval(choice Choice<DateTime, Quantity, Interval<DateTime>, Interval<Quantity>, Timing>):\n  case\n\t  when choice is DateTime then\n    \tInterval[choice as DateTime, choice as DateTime]\n\t\twhen choice is Interval<DateTime> then\n  \t\tchoice as Interval<DateTime>\n\t\twhen choice is Quantity then\n\t\t  Interval[Patient.birthDate + (choice as Quantity),\n\t\t\t  Patient.birthDate + (choice as Quantity) + 1 year)\n\t\twhen choice is Interval<Quantity> then\n\t\t  Interval[Patient.birthDate + (choice.low as Quantity),\n\t\t\t  Patient.birthDate + (choice.high as Quantity) + 1 year)\n\t\twhen choice is Timing then\n      Message(null, true, 'NOT_IMPLEMENTED', 'Error', 'Calculation of an interval from a Timing value is not supported') as Interval<DateTime>\n\t\telse\n\t\t\tnull as Interval<DateTime>\n\tend"
                  },
                  {
                    "url": "displaySequence",
                    "valueInteger": 14
                  }
                ]
              },
              {
                "url": "http://hl7.org/fhir/us/cqfmeasures/StructureDefinition/cqfm-logicDefinition",
                "extension": [
                  {
                    "url": "libraryName",
                    "valueString": "Status"
                  },
                  {
                    "url": "name",
                    "valueString": "isAssessmentPerformed"
                  },
                  {
                    "url": "statement",
                    "valueString": "//This library contains functions that are based on QDM 5.6 to QICore 4.1.1 March 2023 (https://github.com/cqframework/CQL-Formatting-and-Usage-Wiki/wiki/Authoring-Patterns---QICore-v4.1.1). The functions may appear similar to some QICoreCommon functions but different in that they have constraints that are relevant for measures authored by NCQA.\n\n//Assessment, Performed\ndefine fluent function isAssessmentPerformed(Obs List<Observation>):\n  Obs O\n    where O.status in { 'final', 'amended', 'corrected' }\n          and exists ( O.category ObservationCategory\n          where ( ObservationCategory ) ~ \"survey\"\n      )"
                  },
                  {
                    "url": "displaySequence",
                    "valueInteger": 15
                  }
                ]
              },
              {
                "url": "http://hl7.org/fhir/us/cqfmeasures/StructureDefinition/cqfm-logicDefinition",
                "extension": [
                  {
                    "url": "libraryName",
                    "valueString": "Status"
                  },
                  {
                    "url": "name",
                    "valueString": "isInterventionOrder"
                  },
                  {
                    "url": "statement",
                    "valueString": "//Intervention, Order: active and completed only    \ndefine fluent function isInterventionOrder(ServiceRequest List<ServiceRequest>):\n  ServiceRequest S\n    where S.status in { 'active', 'completed' }\n      and S.intent = 'order'"
                  },
                  {
                    "url": "displaySequence",
                    "valueInteger": 16
                  }
                ]
              },
              {
                "url": "http://hl7.org/fhir/us/cqfmeasures/StructureDefinition/cqfm-logicDefinition",
                "extension": [
                  {
                    "url": "libraryName",
                    "valueString": "Status"
                  },
                  {
                    "url": "name",
                    "valueString": "isInterventionPerformed"
                  },
                  {
                    "url": "statement",
                    "valueString": "//Intervention, Performed\ndefine fluent function isInterventionPerformed(Proc List<Procedure>):\n  Proc P\n    where P.status ~ 'completed'"
                  },
                  {
                    "url": "displaySequence",
                    "valueInteger": 17
                  }
                ]
              },
              {
                "url": "http://hl7.org/fhir/us/cqfmeasures/StructureDefinition/cqfm-logicDefinition",
                "extension": [
                  {
                    "url": "libraryName",
                    "valueString": "QICoreCommon"
                  },
                  {
                    "url": "name",
                    "valueString": "prevalenceInterval"
                  },
                  {
                    "url": "statement",
                    "valueString": "/*\n@description: Returns an interval representing the normalized prevalence period of a given Condition.\n@comment: Uses the ToInterval and ToAbatementInterval functions to determine the widest potential interval from\nonset to abatement as specified in the given Condition. If the condition is active, or has an abatement date the resulting \ninterval will have a closed ending boundary. Otherwise, the resulting interval will have an open ending boundary.\n*/\ndefine fluent function prevalenceInterval(condition Condition):\nif condition.clinicalStatus ~ \"active\"\n  or condition.clinicalStatus ~ \"recurrence\"\n  or condition.clinicalStatus ~ \"relapse\" then\n  Interval[start of condition.onset.toInterval(), end of condition.abatementInterval()]\nelse\n    (end of condition.abatementInterval()) abatementDate\n    return if abatementDate is null then\n      Interval[start of condition.onset.toInterval(), abatementDate)\n    else\n      Interval[start of condition.onset.toInterval(), abatementDate]"
                  },
                  {
                    "url": "displaySequence",
                    "valueInteger": 18
                  }
                ]
              },
              {
                "url": "http://hl7.org/fhir/us/cqfmeasures/StructureDefinition/cqfm-logicDefinition",
                "extension": [
                  {
                    "url": "libraryName",
                    "valueString": "Status"
                  },
                  {
                    "url": "name",
                    "valueString": "isProcedurePerformed"
                  },
                  {
                    "url": "statement",
                    "valueString": "//Procedure, Performed\ndefine fluent function isProcedurePerformed(Proc List<Procedure>):\n  Proc P\n    where P.status ~ 'completed'"
                  },
                  {
                    "url": "displaySequence",
                    "valueInteger": 19
                  }
                ]
              }
            ],
            "name": "EffectiveDataRequirements",
            "status": "active",
            "type": {
              "coding": [
                {
                  "system": "http://terminology.hl7.org/CodeSystem/library-type",
                  "code": "module-definition"
                }
              ]
            },
            "relatedArtifact": [
              {
                "type": "depends-on",
                "display": "Library Status",
                "resource": "Library/Status|1.8.000"
              },
              {
                "type": "depends-on",
                "display": "Library FHIRHelpers",
                "resource": "Library/FHIRHelpers|4.4.000"
              },
              {
                "type": "depends-on",
                "display": "Library QICoreCommon",
                "resource": "Library/QICoreCommon|2.1.000"
              },
              {
                "type": "depends-on",
                "display": "Library Hospice",
                "resource": "Library/Hospice|6.12.000"
              },
              {
                "type": "depends-on",
                "display": "Library PalliativeCare",
                "resource": "Library/PalliativeCare|1.11.000"
              },
              {
                "type": "depends-on",
                "display": "Code system ObservationCategoryCodes",
                "resource": "http://terminology.hl7.org/CodeSystem/observation-category"
              },
              {
                "type": "depends-on",
                "display": "Code system SNOMEDCT",
                "resource": "http://snomed.info/sct"
              },
              {
                "type": "depends-on",
                "display": "Code system LOINC",
                "resource": "http://loinc.org"
              },
              {
                "type": "depends-on",
                "display": "Value set Pap Test",
                "resource": "http://cts.nlm.nih.gov/fhir/ValueSet/2.16.840.1.113883.3.464.1003.108.12.1017"
              },
              {
                "type": "depends-on",
                "display": "Value set HPV Test",
                "resource": "http://cts.nlm.nih.gov/fhir/ValueSet/2.16.840.1.113883.3.464.1003.110.12.1059"
              },
              {
                "type": "depends-on",
                "display": "Value set Office Visit",
                "resource": "http://cts.nlm.nih.gov/fhir/ValueSet/2.16.840.1.113883.3.464.1003.101.12.1001"
              },
              {
                "type": "depends-on",
                "display": "Value set Preventive Care Services Established Office Visit, 18 and Up",
                "resource": "http://cts.nlm.nih.gov/fhir/ValueSet/2.16.840.1.113883.3.464.1003.101.12.1025"
              },
              {
                "type": "depends-on",
                "display": "Value set Preventive Care Services Initial Office Visit, 18 and Up",
                "resource": "http://cts.nlm.nih.gov/fhir/ValueSet/2.16.840.1.113883.3.464.1003.101.12.1023"
              },
              {
                "type": "depends-on",
                "display": "Value set Home Healthcare Services",
                "resource": "http://cts.nlm.nih.gov/fhir/ValueSet/2.16.840.1.113883.3.464.1003.101.12.1016"
              },
              {
                "type": "depends-on",
                "display": "Value set Telephone Visits",
                "resource": "http://cts.nlm.nih.gov/fhir/ValueSet/2.16.840.1.113883.3.464.1003.101.12.1080"
              },
              {
                "type": "depends-on",
                "display": "Value set Virtual Encounter",
                "resource": "http://cts.nlm.nih.gov/fhir/ValueSet/2.16.840.1.113883.3.464.1003.101.12.1089"
              },
              {
                "type": "depends-on",
                "display": "Value set Encounter Inpatient",
                "resource": "http://cts.nlm.nih.gov/fhir/ValueSet/2.16.840.1.113883.3.666.5.307"
              },
              {
                "type": "depends-on",
                "display": "Value set Hospice Encounter",
                "resource": "http://cts.nlm.nih.gov/fhir/ValueSet/2.16.840.1.113883.3.464.1003.1003"
              },
              {
                "type": "depends-on",
                "display": "Value set Hospice Care Ambulatory",
                "resource": "http://cts.nlm.nih.gov/fhir/ValueSet/2.16.840.1.113883.3.526.3.1584"
              },
              {
                "type": "depends-on",
                "display": "Value set Hospice Diagnosis",
                "resource": "http://cts.nlm.nih.gov/fhir/ValueSet/2.16.840.1.113883.3.464.1003.1165"
              },
              {
                "type": "depends-on",
                "display": "Value set Hysterectomy with No Residual Cervix",
                "resource": "http://cts.nlm.nih.gov/fhir/ValueSet/2.16.840.1.113883.3.464.1003.198.12.1014"
              },
              {
                "type": "depends-on",
                "display": "Value set Congenital or Acquired Absence of Cervix",
                "resource": "http://cts.nlm.nih.gov/fhir/ValueSet/2.16.840.1.113883.3.464.1003.111.12.1016"
              },
              {
                "type": "depends-on",
                "display": "Value set Palliative Care Diagnosis",
                "resource": "http://cts.nlm.nih.gov/fhir/ValueSet/2.16.840.1.113883.3.464.1003.1167"
              },
              {
                "type": "depends-on",
                "display": "Value set Palliative Care Encounter",
                "resource": "http://cts.nlm.nih.gov/fhir/ValueSet/2.16.840.1.113883.3.464.1003.101.12.1090"
              },
              {
                "type": "depends-on",
                "display": "Value set Palliative Care Intervention",
                "resource": "http://cts.nlm.nih.gov/fhir/ValueSet/2.16.840.1.113883.3.464.1003.198.12.1135"
              }
            ],
            "parameter": [
              {
                "name": "Measurement Period",
                "use": "in",
                "min": 0,
                "max": "1",
                "type": "Period"
              },
              {
                "name": "Numerator",
                "use": "out",
                "min": 0,
                "max": "1",
                "type": "boolean"
              },
              {
                "name": "Denominator",
                "use": "out",
                "min": 0,
                "max": "1",
                "type": "boolean"
              },
              {
                "name": "Initial Population",
                "use": "out",
                "min": 0,
                "max": "1",
                "type": "boolean"
              },
              {
                "name": "Denominator Exclusions",
                "use": "out",
                "min": 0,
                "max": "1",
                "type": "boolean"
              }
            ],
            "dataRequirement": [
              {
                "type": "Observation",
                "profile": [
                  "http://hl7.org/fhir/us/qicore/StructureDefinition/qicore-observation"
                ],
                "mustSupport": [
                  "code",
                  "effective",
                  "value",
                  "status",
                  "status.value",
                  "category"
                ],
                "codeFilter": [
                  {
                    "path": "code",
                    "valueSet": "http://cts.nlm.nih.gov/fhir/ValueSet/2.16.840.1.113883.3.464.1003.108.12.1017"
                  }
                ]
              },
              {
                "type": "Observation",
                "profile": [
                  "http://hl7.org/fhir/us/qicore/StructureDefinition/qicore-observation"
                ],
                "mustSupport": [
                  "code",
                  "effective",
                  "value",
                  "status",
                  "status.value",
                  "category"
                ],
                "codeFilter": [
                  {
                    "path": "code",
                    "valueSet": "http://cts.nlm.nih.gov/fhir/ValueSet/2.16.840.1.113883.3.464.1003.110.12.1059"
                  }
                ]
              },
              {
                "type": "Observation",
                "profile": [
                  "http://hl7.org/fhir/us/qicore/StructureDefinition/qicore-observation"
                ],
                "mustSupport": [
                  "code",
                  "value",
                  "effective",
                  "status",
                  "status.value",
                  "category"
                ],
                "codeFilter": [
                  {
                    "path": "code",
                    "code": [
                      {
                        "system": "http://loinc.org",
                        "code": "45755-6",
                        "display": "Hospice care [Minimum Data Set]"
                      }
                    ]
                  },
                  {
                    "path": "value"
                  }
                ]
              },
              {
                "type": "Observation",
                "profile": [
                  "http://hl7.org/fhir/us/qicore/StructureDefinition/qicore-observation"
                ],
                "mustSupport": [
                  "code",
                  "effective",
                  "status",
                  "status.value",
                  "category"
                ],
                "codeFilter": [
                  {
                    "path": "code",
                    "code": [
                      {
                        "system": "http://loinc.org",
                        "code": "71007-9",
                        "display": "Functional Assessment of Chronic Illness Therapy - Palliative Care Questionnaire (FACIT-Pal)"
                      }
                    ]
                  }
                ]
              },
              {
                "type": "Patient",
                "profile": [
                  "http://hl7.org/fhir/us/qicore/StructureDefinition/qicore-patient"
                ]
              },
              {
                "type": "Encounter",
                "profile": [
                  "http://hl7.org/fhir/us/qicore/StructureDefinition/qicore-encounter"
                ],
                "mustSupport": ["type", "status", "status.value", "period"],
                "codeFilter": [
                  {
                    "path": "type",
                    "valueSet": "http://cts.nlm.nih.gov/fhir/ValueSet/2.16.840.1.113883.3.464.1003.101.12.1001"
                  }
                ]
              },
              {
                "type": "Encounter",
                "profile": [
                  "http://hl7.org/fhir/us/qicore/StructureDefinition/qicore-encounter"
                ],
                "mustSupport": ["type", "status", "status.value", "period"],
                "codeFilter": [
                  {
                    "path": "type",
                    "valueSet": "http://cts.nlm.nih.gov/fhir/ValueSet/2.16.840.1.113883.3.464.1003.101.12.1025"
                  }
                ]
              },
              {
                "type": "Encounter",
                "profile": [
                  "http://hl7.org/fhir/us/qicore/StructureDefinition/qicore-encounter"
                ],
                "mustSupport": ["type", "status", "status.value", "period"],
                "codeFilter": [
                  {
                    "path": "type",
                    "valueSet": "http://cts.nlm.nih.gov/fhir/ValueSet/2.16.840.1.113883.3.464.1003.101.12.1023"
                  }
                ]
              },
              {
                "type": "Encounter",
                "profile": [
                  "http://hl7.org/fhir/us/qicore/StructureDefinition/qicore-encounter"
                ],
                "mustSupport": ["type", "status", "status.value", "period"],
                "codeFilter": [
                  {
                    "path": "type",
                    "valueSet": "http://cts.nlm.nih.gov/fhir/ValueSet/2.16.840.1.113883.3.464.1003.101.12.1016"
                  }
                ]
              },
              {
                "type": "Encounter",
                "profile": [
                  "http://hl7.org/fhir/us/qicore/StructureDefinition/qicore-encounter"
                ],
                "mustSupport": ["type", "status", "status.value", "period"],
                "codeFilter": [
                  {
                    "path": "type",
                    "valueSet": "http://cts.nlm.nih.gov/fhir/ValueSet/2.16.840.1.113883.3.464.1003.101.12.1080"
                  }
                ]
              },
              {
                "type": "Encounter",
                "profile": [
                  "http://hl7.org/fhir/us/qicore/StructureDefinition/qicore-encounter"
                ],
                "mustSupport": ["type", "status", "status.value", "period"],
                "codeFilter": [
                  {
                    "path": "type",
                    "valueSet": "http://cts.nlm.nih.gov/fhir/ValueSet/2.16.840.1.113883.3.464.1003.101.12.1089"
                  }
                ]
              },
              {
                "type": "Encounter",
                "profile": [
                  "http://hl7.org/fhir/us/qicore/StructureDefinition/qicore-encounter"
                ],
                "mustSupport": [
                  "type",
                  "hospitalization",
                  "hospitalization.dischargeDisposition",
                  "period",
                  "status",
                  "status.value"
                ],
                "codeFilter": [
                  {
                    "path": "type",
                    "valueSet": "http://cts.nlm.nih.gov/fhir/ValueSet/2.16.840.1.113883.3.666.5.307"
                  }
                ]
              },
              {
                "type": "Encounter",
                "profile": [
                  "http://hl7.org/fhir/us/qicore/StructureDefinition/qicore-encounter"
                ],
                "mustSupport": ["type", "period", "status", "status.value"],
                "codeFilter": [
                  {
                    "path": "type",
                    "valueSet": "http://cts.nlm.nih.gov/fhir/ValueSet/2.16.840.1.113883.3.464.1003.1003"
                  }
                ]
              },
              {
                "type": "Encounter",
                "profile": [
                  "http://hl7.org/fhir/us/qicore/StructureDefinition/qicore-encounter"
                ],
                "mustSupport": ["type", "period", "status", "status.value"],
                "codeFilter": [
                  {
                    "path": "type",
                    "valueSet": "http://cts.nlm.nih.gov/fhir/ValueSet/2.16.840.1.113883.3.464.1003.101.12.1090"
                  }
                ]
              },
              {
                "type": "ServiceRequest",
                "profile": [
                  "http://hl7.org/fhir/us/qicore/StructureDefinition/qicore-servicerequest"
                ],
                "mustSupport": [
                  "code",
                  "authoredOn",
                  "authoredOn.value",
                  "status",
                  "status.value",
                  "intent",
                  "intent.value"
                ],
                "codeFilter": [
                  {
                    "path": "code",
                    "valueSet": "http://cts.nlm.nih.gov/fhir/ValueSet/2.16.840.1.113883.3.526.3.1584"
                  }
                ]
              },
              {
                "type": "Procedure",
                "profile": [
                  "http://hl7.org/fhir/us/qicore/StructureDefinition/qicore-procedure"
                ],
                "mustSupport": ["code", "performed", "status", "status.value"],
                "codeFilter": [
                  {
                    "path": "code",
                    "valueSet": "http://cts.nlm.nih.gov/fhir/ValueSet/2.16.840.1.113883.3.526.3.1584"
                  }
                ]
              },
              {
                "type": "Procedure",
                "profile": [
                  "http://hl7.org/fhir/us/qicore/StructureDefinition/qicore-procedure"
                ],
                "mustSupport": ["code", "performed", "status", "status.value"],
                "codeFilter": [
                  {
                    "path": "code",
                    "valueSet": "http://cts.nlm.nih.gov/fhir/ValueSet/2.16.840.1.113883.3.464.1003.198.12.1014"
                  }
                ],
                "dateFilter": [
                  {
                    "path": "performed"
                  }
                ]
              },
              {
                "type": "Procedure",
                "profile": [
                  "http://hl7.org/fhir/us/qicore/StructureDefinition/qicore-procedure"
                ],
                "mustSupport": ["code", "performed", "status", "status.value"],
                "codeFilter": [
                  {
                    "path": "code",
                    "valueSet": "http://cts.nlm.nih.gov/fhir/ValueSet/2.16.840.1.113883.3.464.1003.198.12.1135"
                  }
                ]
              },
              {
                "type": "Condition",
                "profile": [
                  "http://hl7.org/fhir/us/qicore/StructureDefinition/qicore-condition"
                ],
                "mustSupport": ["code"],
                "codeFilter": [
                  {
                    "path": "code",
                    "valueSet": "http://cts.nlm.nih.gov/fhir/ValueSet/2.16.840.1.113883.3.464.1003.1165"
                  }
                ]
              },
              {
                "type": "Condition",
                "profile": [
                  "http://hl7.org/fhir/us/qicore/StructureDefinition/qicore-condition"
                ],
                "mustSupport": ["code"],
                "codeFilter": [
                  {
                    "path": "code",
                    "valueSet": "http://cts.nlm.nih.gov/fhir/ValueSet/2.16.840.1.113883.3.464.1003.111.12.1016"
                  }
                ]
              },
              {
                "type": "Condition",
                "profile": [
                  "http://hl7.org/fhir/us/qicore/StructureDefinition/qicore-condition"
                ],
                "mustSupport": ["code"],
                "codeFilter": [
                  {
                    "path": "code",
                    "valueSet": "http://cts.nlm.nih.gov/fhir/ValueSet/2.16.840.1.113883.3.464.1003.1167"
                  }
                ]
              }
            ]
          }
        ],
        "extension": [
          {
            "id": "effective-data-requirements",
            "url": "http://hl7.org/fhir/us/cqfmeasures/StructureDefinition/cqfm-effectiveDataRequirements",
            "valueReference": {
              "reference": "#effective-data-requirements"
            }
          },
          {
            "url": "http://hl7.org/fhir/us/cqfmeasures/StructureDefinition/cqfm-softwaresystem",
            "valueReference": {
              "reference": "Device/cqf-tooling"
            }
          },
          {
            "url": "http://hl7.org/fhir/StructureDefinition/cqf-cqlOptions",
            "valueReference": {
              "reference": "Measure/cql-options-test"
            }
          },
          {
            "url": "http://hl7.org/fhir/StructureDefinition/cqf-expansionParameters",
            "valueReference": {
              "reference": "#exp-params-test-absent"
            }
          },
          {
            "url": "http://hl7.org/fhir/us/cqfmeasures/StructureDefinition/cqfm-inputParameters",
            "valueReference": {
              "reference": "Library/input-parameters-test"
            }
          },
          {
            "url": "http://hl7.org/fhir/us/cqfmeasures/StructureDefinition/cqfm-component",
            "valueRelatedArtifact": {
              "resource": "Library/cqfm-component-test",
              "type": "composed-of"
            }
          }
        ],
        "url": "https://madie.cms.gov/Measure/CervicalCancerScreeningFHIR",
        "identifier": [
          {
            "use": "usual",
            "type": {
              "coding": [
                {
                  "system": "http://hl7.org/fhir/us/cqfmeasures/CodeSystem/identifier-type",
                  "code": "short-name"
                }
              ]
            },
            "system": "https://madie.cms.gov/measure/shortName",
            "value": "CMS124FHIR"
          },
          {
            "use": "official",
            "type": {
              "coding": [
                {
                  "system": "http://hl7.org/fhir/us/cqfmeasures/CodeSystem/identifier-type",
                  "code": "version-independent"
                }
              ]
            },
            "system": "urn:ietf:rfc:3986",
            "value": "urn:uuid:3be5df74-24e1-46ed-b899-6e98b9e3760b"
          },
          {
            "use": "official",
            "type": {
              "coding": [
                {
                  "system": "http://hl7.org/fhir/us/cqfmeasures/CodeSystem/identifier-type",
                  "code": "version-specific"
                }
              ]
            },
            "system": "urn:ietf:rfc:3986",
            "value": "urn:uuid:d66e7255-e320-4d80-b28a-091f041ea7e0"
          },
          {
            "use": "official",
            "type": {
              "coding": [
                {
                  "system": "http://hl7.org/fhir/us/cqfmeasures/CodeSystem/identifier-type",
                  "code": "publisher"
                }
              ]
            },
            "system": "https://madie.cms.gov/measure/cmsId",
            "value": "124FHIR",
            "assigner": {
              "display": "CMS"
            }
          }
        ],
        "version": "0.0.001",
        "name": "CervicalCancerScreeningFHIR",
        "title": "Cervical Cancer ScreeningFHIR",
        "status": "active",
        "experimental": false,
        "date": "2024-07-09T14:53:56+00:00",
        "publisher": "National Committee for Quality Assurance",
        "contact": [
          {
            "telecom": [
              {
                "system": "url",
                "value": "https://www.ncqa.org/"
              }
            ]
          }
        ],
        "description": "Percentage of women 21-64 years of age who were screened for cervical cancer using either of the following criteria: - Women age 21-64 who had cervical cytology performed within the last 3 years - Women age 30-64 who had cervical human papillomavirus (HPV) testing performed within the last 5 years",
        "purpose": "UNKNOWN",
        "usage": "To ensure the measure is only looking for a cervical cytology test only after a woman turns 21 years of age, the youngest age in the initial population is 23.  Please note the measure may include screenings performed outside the age range of patients referenced in the initial population. Screenings that occur prior to the measurement period are valid to meet measure criteria.  Evidence of hrHPV testing within the last 5 years also captures patients who had cotesting; therefore additional methods to identify cotesting are not necessary.  This eCQM is a patient-based measure.  This FHIR-based measure has been derived from the QDM-based measure: CMS124v13.  Please refer to the HL7 QI-Core Implementation Guide (https://hl7.org/fhir/us/qicore/STU4.1.1/) for more information on QI-Core and mapping recommendations from QDM to QI-Core 4.1.1 (https://hl7.org/fhir/us/qicore/STU4.1.1/qdm-to-qicore.html).",
        "copyright": "This Physician Performance Measure (Measure) and related data specifications are owned and were developed by the National Committee for Quality Assurance (NCQA). NCQA is not responsible for any use of the Measure. NCQA makes no representations, warranties, or endorsement about the quality of any organization or physician that uses or reports performance measures and NCQA has no liability to anyone who relies on such measures or specifications. NCQA holds a copyright in the Measure. The Measure can be reproduced and distributed, without modification, for noncommercial purposes (e.g., use by healthcare providers in connection with their practices) without obtaining approval from NCQA. Commercial use is defined as the sale, licensing, or distribution of the Measure for commercial gain, or incorporation of the Measure into a product or service that is sold, licensed or distributed for commercial gain. All commercial uses or requests for modification must be approved by NCQA and are subject to a license at the discretion of NCQA. (C) 2012-2021 National Committee for Quality Assurance. All Rights Reserved.  Limited proprietary coding is contained in the Measure specifications for user convenience. Users of proprietary code sets should obtain all necessary licenses from the owners of the code sets. NCQA disclaims all liability for use or accuracy of any third party codes contained in the specifications.  CPT(R) contained in the Measure specifications is copyright 2004-2021 American Medical Association. LOINC(R) copyright 2004-2021 Regenstrief Institute, Inc. This material contains SNOMED Clinical Terms(R) (SNOMED CT[R]) copyright 2004-2021 International Health Terminology Standards Development Organisation. ICD-10 copyright 2021 World Health Organization. All Rights Reserved.",
        "effectivePeriod": {
          "start": "2025-01-01",
          "end": "2025-12-31"
        },
        "author": [
          {
            "name": "National Committee for Quality Assurance",
            "telecom": [
              {
                "system": "url",
                "value": "https://www.ncqa.org/"
              }
            ]
          }
        ],
        "library": [
          "https://madie.cms.gov/Library/CervicalCancerScreeningFHIR"
        ],
        "supplementalData": [
          {
            "criteria": {
              "reference": "Library/supplemental-criteria-reference-test"
            }
          }
        ],
        "disclaimer": "The performance Measure is not a clinical guideline and does not establish a standard of medical care, and has not been tested for all potential applications. THE MEASURE AND SPECIFICATIONS ARE PROVIDED \"AS IS\" WITHOUT WARRANTY OF ANY KIND.   Due to technical limitations, registered trademarks are indicated by (R) or [R] and unregistered trademarks are indicated by (TM) or [TM].",
        "rationale": "All women are at risk for cervical cancer. In 2020, an estimated 13,800 women were diagnosed with cervical cancer in the U.S., resulting in an estimated 4,290 deaths (National Cancer Institute, 2020). Screening can identify precancerous lesions and can detect invasive cancer early, when treatment is more likely to be successful (American Cancer Society, 2020).",
        "clinicalRecommendationStatement": "US Preventive Services Task Force (USPSTF) (2018) \"The USPSTF recommends screening for cervical cancer every 3 years with cervical cytology alone in women aged 21 to 29 years. For women aged 30 to 65 years, the USPSTF recommends screening every 3 years with cervical cytology alone, every 5 years with high-risk human papillomavirus (hrHPV) testing alone, or every 5 years with hrHPV testing in combination with cytology (cotesting) (A recommendation)\"  \"The USPSTF recommends against screening for cervical cancer in women older than 65 years who have had adequate prior screening and are not otherwise at high risk for cervical cancer. (D recommendation)\"  \"The USPSTF recommends against screening for cervical cancer in women younger than 21 years. (D recommendation)\"  \"The USPSTF recommends against screening for cervical cancer in women who have had a hysterectomy with removal of the cervix and do not have a history of a high-grade precancerous lesion (ie, cervical intraepithelial neoplasia [CIN] grade 2 or 3) or cervical cancer. (D recommendation)\"",
        "group": [
          {
            "id": "64d29f68f9c3ae6981ef507d",
            "extension": [
              {
                "url": "http://hl7.org/fhir/us/cqfmeasures/StructureDefinition/cqfm-scoring",
                "valueCodeableConcept": {
                  "coding": [
                    {
                      "system": "http://terminology.hl7.org/CodeSystem/measure-scoring",
                      "code": "proportion",
                      "display": "Proportion"
                    }
                  ]
                }
              },
              {
                "url": "http://hl7.org/fhir/us/cqfmeasures/StructureDefinition/cqfm-populationBasis",
                "valueCode": "boolean"
              },
              {
                "url": "http://hl7.org/fhir/us/cqfmeasures/StructureDefinition/cqfm-type",
                "valueCodeableConcept": {
                  "coding": [
                    {
                      "system": "http://terminology.hl7.org/CodeSystem/measure-type",
                      "code": "process",
                      "display": "Process"
                    }
                  ]
                }
              },
              {
                "url": "http://hl7.org/fhir/us/cqfmeasures/StructureDefinition/cqfm-rateAggregation",
                "valueCode": "None"
              },
              {
                "url": "http://hl7.org/fhir/us/cqfmeasures/StructureDefinition/cqfm-improvementNotation",
                "valueCodeableConcept": {
                  "coding": [
                    {
                      "system": "http://terminology.hl7.org/CodeSystem/measure-improvement-notation",
                      "code": "decrease",
                      "display": "increase"
                    }
                  ]
                }
              }
            ],
            "population": [
              {
                "id": "0CB398EC-F7C3-4882-98FF-D9E0E3E62B4F",
                "code": {
                  "coding": [
                    {
                      "system": "http://terminology.hl7.org/CodeSystem/measure-population",
                      "code": "initial-population",
                      "display": "Initial Population"
                    }
                  ]
                },
                "description": "Women 24-64 years of age by the end of the measurement period with a visit during the measurement period",
                "criteria": {
                  "language": "text/cql-identifier",
                  "expression": "Initial Population"
                }
              },
              {
                "id": "C02AA51E-4436-4034-A67F-DB42C22EB337",
                "code": {
                  "coding": [
                    {
                      "system": "http://terminology.hl7.org/CodeSystem/measure-population",
                      "code": "denominator",
                      "display": "Denominator"
                    }
                  ]
                },
                "description": "Equals Initial Population",
                "criteria": {
                  "language": "text/cql-identifier",
                  "expression": "Denominator"
                }
              },
              {
                "id": "2EF6ABDF-E416-44B8-928B-DCC7D7C55860",
                "code": {
                  "coding": [
                    {
                      "system": "http://terminology.hl7.org/CodeSystem/measure-population",
                      "code": "denominator-exclusion",
                      "display": "Denominator Exclusion"
                    }
                  ]
                },
                "description": "Exclude patients who are in hospice care for any part of the measurement period.  Women who had a hysterectomy with no residual cervix or a congenital absence of cervix.  Exclude patients receiving palliative care for any part of the measurement period.",
                "criteria": {
                  "language": "text/cql-identifier",
                  "expression": "Denominator Exclusions"
                }
              },
              {
                "id": "56088E3D-0DEE-43D2-9866-1F38ACB030CB",
                "code": {
                  "coding": [
                    {
                      "system": "http://terminology.hl7.org/CodeSystem/measure-population",
                      "code": "numerator",
                      "display": "Numerator"
                    }
                  ]
                },
                "description": "Women with one or more screenings for cervical cancer. Appropriate screenings are defined by any one of the following criteria: - Cervical cytology performed during the measurement period or the two years prior to the measurement period for women who are at least 21 years old at the time of the test.  - Cervical human papillomavirus (HPV) testing performed during the measurement period or the four years prior to the measurement period for women who are 30 years or older at the time of the test.",
                "criteria": {
                  "language": "text/cql-identifier",
                  "expression": "Numerator"
                }
              },
              {
                "criteria": { "reference": "Library/population-criteria-test" }
              }
            ],
            "stratifier": [
              {
                "criteria": { "reference": "Library/stratifier-criteria-test" }
              },
              {
                "component": {
                  "criteria": {
                    "reference": "Library/stratifier-component-criteria-test"
                  }
                }
              }
            ]
          }
        ]
      },
      "request": {
        "method": "PUT",
        "url": "Measure/CervicalCancerScreeningFHIR"
      }
    },
    {
      "fullUrl": "https://madie.cms.gov/Library/CervicalCancerScreeningFHIR|0.0.001",
      "resource": {
        "resourceType": "Library",
        "id": "CervicalCancerScreeningFHIR",
        "meta": {
          "profile": [
            "http://hl7.org/fhir/us/cqfmeasures/StructureDefinition/computable-library-cqfm"
          ]
        },
        "language": "en",
        "contained": [
          {
            "resourceType": "Parameters",
            "id": "options",
            "parameter": [
              {
                "name": "translatorVersion",
                "valueString": "3.10.0"
              },
              {
                "name": "option",
                "valueString": "EnableAnnotations"
              },
              {
                "name": "option",
                "valueString": "EnableLocators"
              },
              {
                "name": "option",
                "valueString": "DisableListDemotion"
              },
              {
                "name": "option",
                "valueString": "DisableListPromotion"
              },
              {
                "name": "format",
                "valueString": "XML"
              },
              {
                "name": "format",
                "valueString": "JSON"
              },
              {
                "name": "analyzeDataRequirements",
                "valueBoolean": true
              },
              {
                "name": "collapseDataRequirements",
                "valueBoolean": true
              },
              {
                "name": "compatibilityLevel",
                "valueString": "1.5"
              },
              {
                "name": "enableCqlOnly",
                "valueBoolean": false
              },
              {
                "name": "errorLevel",
                "valueString": "Info"
              },
              {
                "name": "signatureLevel",
                "valueString": "None"
              },
              {
                "name": "validateUnits",
                "valueBoolean": true
              },
              {
                "name": "verifyOnly",
                "valueBoolean": false
              }
            ]
          }
        ],
        "extension": [
          {
            "url": "http://hl7.org/fhir/StructureDefinition/cqf-cqlOptions",
            "valueReference": {
              "reference": "#options"
            }
          },
          {
            "url": "http://hl7.org/fhir/us/cqfmeasures/StructureDefinition/cqfm-softwaresystem",
            "valueReference": {
              "reference": "Device/cqf-tooling"
            }
          }
        ],
        "url": "https://madie.cms.gov/Library/CervicalCancerScreeningFHIR",
        "identifier": [
          {
            "use": "official",
            "system": "https://madie.cms.gov/login",
            "value": "CervicalCancerScreeningFHIR"
          }
        ],
        "version": "0.0.001",
        "name": "CervicalCancerScreeningFHIR",
        "title": "CervicalCancerScreeningFHIR",
        "status": "active",
        "experimental": false,
        "type": {
          "coding": [
            {
              "system": "http://terminology.hl7.org/CodeSystem/library-type",
              "code": "logic-library"
            }
          ]
        },
        "date": "2024-05-16T13:50:20+00:00",
        "description": "CervicalCancerScreeningFHIR",
        "relatedArtifact": [
          {
            "type": "depends-on",
            "display": "QICore model information",
            "resource": "http://hl7.org/fhir/Library/QICore-ModelInfo"
          },
          {
            "type": "depends-on",
            "display": "Library FHIRHelpers",
            "resource": "http://ecqi.healthit.gov/ecqms/Library/FHIRHelpers|4.4.000"
          },
          {
            "type": "depends-on",
            "display": "Library Hospice",
            "resource": "http://ecqi.healthit.gov/ecqms/Library/Hospice|6.12.000"
          },
          {
            "type": "depends-on",
            "display": "Library PalliativeCare",
            "resource": "http://ecqi.healthit.gov/ecqms/Library/PalliativeCare|1.11.000"
          },
          {
            "type": "depends-on",
            "display": "Library Status",
            "resource": "http://ecqi.healthit.gov/ecqms/Library/Status|1.8.000"
          },
          {
            "type": "depends-on",
            "display": "Code system SNOMEDCT",
            "resource": "http://snomed.info/sct"
          },
          {
            "type": "depends-on",
            "display": "Code system LOINC",
            "resource": "http://loinc.org"
          },
          {
            "type": "depends-on",
            "display": "Code system AdministrativeGender",
            "resource": "http://hl7.org/fhir/administrative-gender"
          },
          {
            "type": "depends-on",
            "display": "Value set Congenital or Acquired Absence of Cervix",
            "resource": "http://cts.nlm.nih.gov/fhir/ValueSet/2.16.840.1.113883.3.464.1003.111.12.1016"
          },
          {
            "type": "depends-on",
            "display": "Value set Hysterectomy with No Residual Cervix",
            "resource": "http://cts.nlm.nih.gov/fhir/ValueSet/2.16.840.1.113883.3.464.1003.198.12.1014"
          },
          {
            "type": "depends-on",
            "display": "Value set Encounter Inpatient",
            "resource": "http://cts.nlm.nih.gov/fhir/ValueSet/2.16.840.1.113883.3.666.5.307"
          },
          {
            "type": "depends-on",
            "display": "Value set Palliative Care Diagnosis",
            "resource": "http://cts.nlm.nih.gov/fhir/ValueSet/2.16.840.1.113883.3.464.1003.1167"
          },
          {
            "type": "depends-on",
            "display": "Value set Payer Type",
            "resource": "http://cts.nlm.nih.gov/fhir/ValueSet/2.16.840.1.114222.4.11.3591"
          }
        ],
        "parameter": [
          {
            "name": "Measurement Period",
            "use": "in",
            "min": 0,
            "max": "1",
            "type": "Period"
          },
          {
            "name": "Patient",
            "use": "out",
            "min": 0,
            "max": "1",
            "type": "Resource"
          },
          {
            "name": "Qualifying Encounters",
            "use": "out",
            "min": 0,
            "max": "*",
            "type": "Resource"
          },
          {
            "name": "Initial Population",
            "use": "out",
            "min": 0,
            "max": "1",
            "type": "boolean"
          },
          {
            "name": "Denominator",
            "use": "out",
            "min": 0,
            "max": "1",
            "type": "boolean"
          },
          {
            "name": "Absence of Cervix",
            "use": "out",
            "min": 0,
            "max": "*",
            "type": "Resource"
          },
          {
            "name": "Denominator Exclusions",
            "use": "out",
            "min": 0,
            "max": "1",
            "type": "boolean"
          },
          {
            "name": "Cervical Cytology Within 3 Years",
            "use": "out",
            "min": 0,
            "max": "*",
            "type": "Resource"
          },
          {
            "name": "HPV Test Within 5 Years for Women Age 30 and Older",
            "use": "out",
            "min": 0,
            "max": "*",
            "type": "Resource"
          },
          {
            "name": "Numerator",
            "use": "out",
            "min": 0,
            "max": "1",
            "type": "boolean"
          },
          {
            "name": "SDE Ethnicity",
            "use": "out",
            "min": 0,
            "max": "1",
            "type": "Resource"
          },
          {
            "name": "SDE Payer",
            "use": "out",
            "min": 0,
            "max": "*",
            "type": "Resource"
          },
          {
            "name": "SDE Race",
            "use": "out",
            "min": 0,
            "max": "1",
            "type": "Resource"
          },
          {
            "name": "SDE Sex",
            "use": "out",
            "min": 0,
            "max": "1",
            "type": "Coding"
          }
        ],
        "dataRequirement": [
          {
            "type": "Patient",
            "profile": [
              "http://hl7.org/fhir/us/qicore/StructureDefinition/qicore-patient"
            ],
            "mustSupport": ["ethnicity", "race"]
          },
          {
            "type": "Encounter",
            "profile": [
              "http://hl7.org/fhir/us/qicore/StructureDefinition/qicore-encounter"
            ],
            "mustSupport": ["type", "status", "status.value", "period"],
            "codeFilter": [
              {
                "path": "type",
                "valueSet": "http://cts.nlm.nih.gov/fhir/ValueSet/2.16.840.1.113883.3.464.1003.101.12.1001"
              }
            ]
          },
          {
            "type": "Encounter",
            "profile": [
              "http://hl7.org/fhir/us/qicore/StructureDefinition/qicore-encounter"
            ],
            "mustSupport": ["type", "status", "status.value", "period"],
            "codeFilter": [
              {
                "path": "type",
                "valueSet": "http://cts.nlm.nih.gov/fhir/ValueSet/2.16.840.1.113883.3.464.1003.101.12.1025"
              }
            ]
          },
          {
            "type": "Encounter",
            "profile": [
              "http://hl7.org/fhir/us/qicore/StructureDefinition/qicore-encounter"
            ],
            "mustSupport": ["type", "status", "status.value", "period"],
            "codeFilter": [
              {
                "path": "type",
                "valueSet": "http://cts.nlm.nih.gov/fhir/ValueSet/2.16.840.1.113883.3.464.1003.101.12.1023"
              }
            ]
          },
          {
            "type": "Encounter",
            "profile": [
              "http://hl7.org/fhir/us/qicore/StructureDefinition/qicore-encounter"
            ],
            "mustSupport": ["type", "status", "status.value", "period"],
            "codeFilter": [
              {
                "path": "type",
                "valueSet": "http://cts.nlm.nih.gov/fhir/ValueSet/2.16.840.1.113883.3.464.1003.101.12.1016"
              }
            ]
          },
          {
            "type": "Encounter",
            "profile": [
              "http://hl7.org/fhir/us/qicore/StructureDefinition/qicore-encounter"
            ],
            "mustSupport": ["type", "status", "status.value", "period"],
            "codeFilter": [
              {
                "path": "type",
                "valueSet": "http://cts.nlm.nih.gov/fhir/ValueSet/2.16.840.1.113883.3.464.1003.101.12.1080"
              }
            ]
          },
          {
            "type": "Encounter",
            "profile": [
              "http://hl7.org/fhir/us/qicore/StructureDefinition/qicore-encounter"
            ],
            "mustSupport": ["type", "status", "status.value", "period"],
            "codeFilter": [
              {
                "path": "type",
                "valueSet": "http://cts.nlm.nih.gov/fhir/ValueSet/2.16.840.1.113883.3.464.1003.101.12.1089"
              }
            ]
          },
          {
            "type": "Encounter",
            "profile": [
              "http://hl7.org/fhir/us/qicore/StructureDefinition/qicore-encounter"
            ],
            "mustSupport": [
              "type",
              "hospitalization",
              "hospitalization.dischargeDisposition",
              "period",
              "status",
              "status.value"
            ],
            "codeFilter": [
              {
                "path": "type",
                "valueSet": "http://cts.nlm.nih.gov/fhir/ValueSet/2.16.840.1.113883.3.666.5.307"
              }
            ]
          },
          {
            "type": "Encounter",
            "profile": [
              "http://hl7.org/fhir/us/qicore/StructureDefinition/qicore-encounter"
            ],
            "mustSupport": ["type", "period", "status", "status.value"],
            "codeFilter": [
              {
                "path": "type",
                "valueSet": "http://cts.nlm.nih.gov/fhir/ValueSet/2.16.840.1.113883.3.464.1003.1003"
              }
            ]
          },
          {
            "type": "Encounter",
            "profile": [
              "http://hl7.org/fhir/us/qicore/StructureDefinition/qicore-encounter"
            ],
            "mustSupport": ["type", "period", "status", "status.value"],
            "codeFilter": [
              {
                "path": "type",
                "valueSet": "http://cts.nlm.nih.gov/fhir/ValueSet/2.16.840.1.113883.3.464.1003.101.12.1090"
              }
            ]
          },
          {
            "type": "Procedure",
            "profile": [
              "http://hl7.org/fhir/us/qicore/StructureDefinition/qicore-procedure"
            ],
            "mustSupport": ["code", "performed", "status", "status.value"],
            "codeFilter": [
              {
                "path": "code",
                "valueSet": "http://cts.nlm.nih.gov/fhir/ValueSet/2.16.840.1.113883.3.464.1003.198.12.1014"
              }
            ],
            "dateFilter": [
              {
                "path": "performed"
              }
            ]
          },
          {
            "type": "Procedure",
            "profile": [
              "http://hl7.org/fhir/us/qicore/StructureDefinition/qicore-procedure"
            ],
            "mustSupport": ["code", "performed", "status", "status.value"],
            "codeFilter": [
              {
                "path": "code",
                "valueSet": "http://cts.nlm.nih.gov/fhir/ValueSet/2.16.840.1.113883.3.526.3.1584"
              }
            ]
          },
          {
            "type": "Procedure",
            "profile": [
              "http://hl7.org/fhir/us/qicore/StructureDefinition/qicore-procedure"
            ],
            "mustSupport": ["code", "performed", "status", "status.value"],
            "codeFilter": [
              {
                "path": "code",
                "valueSet": "http://cts.nlm.nih.gov/fhir/ValueSet/2.16.840.1.113883.3.464.1003.198.12.1135"
              }
            ]
          },
          {
            "type": "Condition",
            "profile": [
              "http://hl7.org/fhir/us/qicore/StructureDefinition/qicore-condition"
            ],
            "mustSupport": ["code"],
            "codeFilter": [
              {
                "path": "code",
                "valueSet": "http://cts.nlm.nih.gov/fhir/ValueSet/2.16.840.1.113883.3.464.1003.111.12.1016"
              }
            ]
          },
          {
            "type": "Condition",
            "profile": [
              "http://hl7.org/fhir/us/qicore/StructureDefinition/qicore-condition"
            ],
            "mustSupport": ["code"],
            "codeFilter": [
              {
                "path": "code",
                "valueSet": "http://cts.nlm.nih.gov/fhir/ValueSet/2.16.840.1.113883.3.464.1003.1165"
              }
            ]
          },
          {
            "type": "Condition",
            "profile": [
              "http://hl7.org/fhir/us/qicore/StructureDefinition/qicore-condition"
            ],
            "mustSupport": ["code"],
            "codeFilter": [
              {
                "path": "code",
                "valueSet": "http://cts.nlm.nih.gov/fhir/ValueSet/2.16.840.1.113883.3.464.1003.1167"
              }
            ]
          },
          {
            "type": "Observation",
            "profile": [
              "http://hl7.org/fhir/us/qicore/StructureDefinition/qicore-observation"
            ],
            "mustSupport": [
              "code",
              "value",
              "effective",
              "status",
              "status.value",
              "category"
            ],
            "codeFilter": [
              {
                "path": "code",
                "code": [
                  {
                    "system": "http://loinc.org",
                    "code": "45755-6",
                    "display": "Hospice care [Minimum Data Set]"
                  }
                ]
              },
              {
                "path": "value"
              }
            ]
          },
          {
            "type": "Observation",
            "profile": [
              "http://hl7.org/fhir/us/qicore/StructureDefinition/qicore-observation"
            ],
            "mustSupport": [
              "code",
              "effective",
              "status",
              "status.value",
              "category"
            ],
            "codeFilter": [
              {
                "path": "code",
                "code": [
                  {
                    "system": "http://loinc.org",
                    "code": "71007-9",
                    "display": "Functional Assessment of Chronic Illness Therapy - Palliative Care Questionnaire (FACIT-Pal)"
                  }
                ]
              }
            ]
          },
          {
            "type": "Observation",
            "profile": [
              "http://hl7.org/fhir/us/qicore/StructureDefinition/qicore-observation"
            ],
            "mustSupport": [
              "code",
              "effective",
              "value",
              "status",
              "status.value",
              "category"
            ],
            "codeFilter": [
              {
                "path": "code",
                "valueSet": "http://cts.nlm.nih.gov/fhir/ValueSet/2.16.840.1.113883.3.464.1003.108.12.1017"
              }
            ]
          },
          {
            "type": "Observation",
            "profile": [
              "http://hl7.org/fhir/us/qicore/StructureDefinition/qicore-observation"
            ],
            "mustSupport": [
              "code",
              "effective",
              "value",
              "status",
              "status.value",
              "category"
            ],
            "codeFilter": [
              {
                "path": "code",
                "valueSet": "http://cts.nlm.nih.gov/fhir/ValueSet/2.16.840.1.113883.3.464.1003.110.12.1059"
              }
            ]
          },
          {
            "type": "ServiceRequest",
            "profile": [
              "http://hl7.org/fhir/us/qicore/StructureDefinition/qicore-servicerequest"
            ],
            "mustSupport": [
              "code",
              "authoredOn",
              "authoredOn.value",
              "status",
              "status.value",
              "intent",
              "intent.value"
            ],
            "codeFilter": [
              {
                "path": "code",
                "valueSet": "http://cts.nlm.nih.gov/fhir/ValueSet/2.16.840.1.113883.3.526.3.1584"
              }
            ]
          },
          {
            "type": "Coverage",
            "profile": [
              "http://hl7.org/fhir/us/qicore/StructureDefinition/qicore-coverage"
            ],
            "mustSupport": ["type", "period"],
            "codeFilter": [
              {
                "path": "type",
                "valueSet": "http://cts.nlm.nih.gov/fhir/ValueSet/2.16.840.1.114222.4.11.3591"
              }
            ]
          }
        ],
        "content": [
          {
            "contentType": "text/cql",
            "data": ""
          },
          {
            "contentType": "application/elm+xml",
            "data": ""
          },
          {
            "contentType": "application/elm+json",
            "data": ""
          }
        ]
      },
      "request": {
        "method": "PUT",
        "url": "Library/CervicalCancerScreeningFHIR"
      }
    },
    {
      "fullUrl": "https://madie.cms.gov/Measure/BreastCancerScreeningFHIR|0.0.001",
      "resource": {
        "resourceType": "Measure",
        "id": "BreastCancerScreeningFHIR",
        "meta": {
          "profile": [
            "http://hl7.org/fhir/us/cqfmeasures/StructureDefinition/computable-measure-cqfm",
            "http://hl7.org/fhir/us/cqfmeasures/StructureDefinition/publishable-measure-cqfm",
            "http://hl7.org/fhir/us/cqfmeasures/StructureDefinition/executable-measure-cqfm"
          ]
        },
        "contained": [
          {
            "resourceType": "Library",
            "id": "effective-data-requirements",
            "extension": [
              {
                "url": "http://hl7.org/fhir/us/cqfmeasures/StructureDefinition/cqfm-directReferenceCode",
                "valueCoding": {
                  "system": "http://snomed.info/sct",
                  "code": "428361000124107",
                  "display": "Discharge to home for hospice care (procedure)"
                }
              },
              {
                "url": "http://hl7.org/fhir/us/cqfmeasures/StructureDefinition/cqfm-directReferenceCode",
                "valueCoding": {
                  "system": "http://snomed.info/sct",
                  "code": "428371000124100",
                  "display": "Discharge to healthcare facility for hospice care (procedure)"
                }
              },
              {
                "url": "http://hl7.org/fhir/us/cqfmeasures/StructureDefinition/cqfm-directReferenceCode",
                "valueCoding": {
                  "system": "http://terminology.hl7.org/CodeSystem/observation-category",
                  "code": "survey",
                  "display": "survey"
                }
              },
              {
                "url": "http://hl7.org/fhir/us/cqfmeasures/StructureDefinition/cqfm-directReferenceCode",
                "valueCoding": {
                  "system": "http://snomed.info/sct",
                  "code": "373066001",
                  "display": "Yes (qualifier value)"
                }
              },
              {
                "url": "http://hl7.org/fhir/us/cqfmeasures/StructureDefinition/cqfm-directReferenceCode",
                "valueCoding": {
                  "system": "http://loinc.org",
                  "code": "45755-6",
                  "display": "Hospice care [Minimum Data Set]"
                }
              },
              {
                "url": "http://hl7.org/fhir/us/cqfmeasures/StructureDefinition/cqfm-directReferenceCode",
                "valueCoding": {
                  "system": "http://snomed.info/sct",
                  "code": "24028007",
                  "display": "Right (qualifier value)"
                }
              },
              {
                "url": "http://hl7.org/fhir/us/cqfmeasures/StructureDefinition/cqfm-directReferenceCode",
                "valueCoding": {
                  "system": "http://snomed.info/sct",
                  "code": "7771000",
                  "display": "Left (qualifier value)"
                }
              },
              {
                "url": "http://hl7.org/fhir/us/cqfmeasures/StructureDefinition/cqfm-directReferenceCode",
                "valueCoding": {
                  "system": "http://loinc.org",
                  "code": "98181-1",
                  "display": "Medical equipment used"
                }
              },
              {
                "url": "http://hl7.org/fhir/us/cqfmeasures/StructureDefinition/cqfm-directReferenceCode",
                "valueCoding": {
                  "system": "http://loinc.org",
                  "code": "71802-3",
                  "display": "Housing status"
                }
              },
              {
                "url": "http://hl7.org/fhir/us/cqfmeasures/StructureDefinition/cqfm-directReferenceCode",
                "valueCoding": {
                  "system": "http://snomed.info/sct",
                  "code": "160734000",
                  "display": "Lives in a nursing home (finding)"
                }
              },
              {
                "url": "http://hl7.org/fhir/us/cqfmeasures/StructureDefinition/cqfm-directReferenceCode",
                "valueCoding": {
                  "system": "http://loinc.org",
                  "code": "71007-9",
                  "display": "Functional Assessment of Chronic Illness Therapy - Palliative Care Questionnaire (FACIT-Pal)"
                }
              },
              {
                "url": "http://hl7.org/fhir/us/cqfmeasures/StructureDefinition/cqfm-logicDefinition",
                "extension": [
                  {
                    "url": "libraryName",
                    "valueString": "BreastCancerScreeningFHIR"
                  },
                  {
                    "url": "name",
                    "valueString": "October 1 Two Years Prior to the Measurement Period"
                  },
                  {
                    "url": "statement",
                    "valueString": "define \"October 1 Two Years Prior to the Measurement Period\":\n  DateTime((year from start of \"Measurement Period\" - 2), 10, 1, 0, 0, 0, 0, 0)"
                  },
                  {
                    "url": "displaySequence",
                    "valueInteger": 0
                  }
                ]
              },
              {
                "url": "http://hl7.org/fhir/us/cqfmeasures/StructureDefinition/cqfm-logicDefinition",
                "extension": [
                  {
                    "url": "libraryName",
                    "valueString": "BreastCancerScreeningFHIR"
                  },
                  {
                    "url": "name",
                    "valueString": "Numerator"
                  },
                  {
                    "url": "statement",
                    "valueString": "define \"Numerator\":\n  exists ( ( ( [Observation: \"Mammography\"] ).isDiagnosticStudyPerformed ( ) ) Mammogram\n      where Mammogram.effective.toInterval ( ) ends during day of Interval[\"October 1 Two Years Prior to the Measurement Period\", end of \"Measurement Period\"]\n  )"
                  },
                  {
                    "url": "displaySequence",
                    "valueInteger": 1
                  }
                ]
              },
              {
                "url": "http://hl7.org/fhir/us/cqfmeasures/StructureDefinition/cqfm-logicDefinition",
                "extension": [
                  {
                    "url": "libraryName",
                    "valueString": "AdultOutpatientEncounters"
                  },
                  {
                    "url": "name",
                    "valueString": "Qualifying Encounters"
                  },
                  {
                    "url": "statement",
                    "valueString": "define \"Qualifying Encounters\":\n  ( ( [Encounter: \"Office Visit\"]\n    union [Encounter: \"Annual Wellness Visit\"]\n    union [Encounter: \"Preventive Care Services Established Office Visit, 18 and Up\"]\n    union [Encounter: \"Preventive Care Services Initial Office Visit, 18 and Up\"]\n    union [Encounter: \"Home Healthcare Services\"]\n    union [Encounter: \"Virtual Encounter\"]\n    union [Encounter: \"Telephone Visits\"] ).isEncounterPerformed() ) ValidEncounter\n    where ValidEncounter.period.toInterval() during day of \"Measurement Period\""
                  },
                  {
                    "url": "displaySequence",
                    "valueInteger": 2
                  }
                ]
              },
              {
                "url": "http://hl7.org/fhir/us/cqfmeasures/StructureDefinition/cqfm-logicDefinition",
                "extension": [
                  {
                    "url": "libraryName",
                    "valueString": "BreastCancerScreeningFHIR"
                  },
                  {
                    "url": "name",
                    "valueString": "Initial Population"
                  },
                  {
                    "url": "statement",
                    "valueString": "define \"Initial Population\":\n  AgeInYearsAt(date from \n    end of \"Measurement Period\"\n  ) in Interval[52, 74]\n    and Patient.gender = 'female'\n    and exists AdultOutpatientEncounters.\"Qualifying Encounters\""
                  },
                  {
                    "url": "displaySequence",
                    "valueInteger": 3
                  }
                ]
              },
              {
                "url": "http://hl7.org/fhir/us/cqfmeasures/StructureDefinition/cqfm-logicDefinition",
                "extension": [
                  {
                    "url": "libraryName",
                    "valueString": "BreastCancerScreeningFHIR"
                  },
                  {
                    "url": "name",
                    "valueString": "Denominator"
                  },
                  {
                    "url": "statement",
                    "valueString": "define \"Denominator\":\n  \"Initial Population\""
                  },
                  {
                    "url": "displaySequence",
                    "valueInteger": 4
                  }
                ]
              },
              {
                "url": "http://hl7.org/fhir/us/cqfmeasures/StructureDefinition/cqfm-logicDefinition",
                "extension": [
                  {
                    "url": "libraryName",
                    "valueString": "Hospice"
                  },
                  {
                    "url": "name",
                    "valueString": "Has Hospice Services"
                  },
                  {
                    "url": "statement",
                    "valueString": "define \"Has Hospice Services\":\n  exists ((([Encounter: \"Encounter Inpatient\"]).isEncounterPerformed()) InpatientEncounter\n      where (InpatientEncounter.hospitalization.dischargeDisposition ~ \"Discharge to home for hospice care (procedure)\"\n          or InpatientEncounter.hospitalization.dischargeDisposition ~ \"Discharge to healthcare facility for hospice care (procedure)\"\n      )\n        and InpatientEncounter.period.toInterval() ends during day of \"Measurement Period\"\n  )\n    or exists ((([Encounter: \"Hospice Encounter\"]).isEncounterPerformed()) HospiceEncounter\n        where HospiceEncounter.period.toInterval() overlaps day of \"Measurement Period\"\n    )\n    or exists ((([Observation: \"Hospice care [Minimum Data Set]\"]).isAssessmentPerformed()) HospiceAssessment\n        where HospiceAssessment.value ~ \"Yes (qualifier value)\"\n          and HospiceAssessment.effective.toInterval() overlaps day of \"Measurement Period\"\n    )\n    or exists ((([ServiceRequest: \"Hospice Care Ambulatory\"]).isInterventionOrder()) HospiceOrder\n        where HospiceOrder.authoredOn.toInterval() during day of \"Measurement Period\"\n        // and HospiceOrder.doNotPerform is not true\n        // https://oncprojectracking.healthit.gov/support/browse/CQLIT-447\n    )\n    or exists ((([Procedure: \"Hospice Care Ambulatory\"]).isInterventionPerformed()) HospicePerformed\n        where HospicePerformed.performed.toInterval() overlaps day of \"Measurement Period\"\n    )\n    or exists (([Condition: \"Hospice Diagnosis\"]) HospiceCareDiagnosis\n        where HospiceCareDiagnosis.prevalenceInterval() overlaps day of \"Measurement Period\"\n    )"
                  },
                  {
                    "url": "displaySequence",
                    "valueInteger": 5
                  }
                ]
              },
              {
                "url": "http://hl7.org/fhir/us/cqfmeasures/StructureDefinition/cqfm-logicDefinition",
                "extension": [
                  {
                    "url": "libraryName",
                    "valueString": "BreastCancerScreeningFHIR"
                  },
                  {
                    "url": "name",
                    "valueString": "Right Mastectomy Diagnosis"
                  },
                  {
                    "url": "statement",
                    "valueString": "define \"Right Mastectomy Diagnosis\":\n  ( [Condition: \"Status Post Right Mastectomy\"] RightMastectomyProcedure\n    union ( [Condition: \"Unilateral Mastectomy, Unspecified Laterality\"] UnilateralMastectomyDiagnosis\n        where exists ( UnilateralMastectomyDiagnosis.bodySite S\n            where S ~ \"Right (qualifier value)\"\n        )\n    ) ) RightMastectomy\n    where RightMastectomy.prevalenceInterval ( ) starts on or before end of \"Measurement Period\""
                  },
                  {
                    "url": "displaySequence",
                    "valueInteger": 6
                  }
                ]
              },
              {
                "url": "http://hl7.org/fhir/us/cqfmeasures/StructureDefinition/cqfm-logicDefinition",
                "extension": [
                  {
                    "url": "libraryName",
                    "valueString": "BreastCancerScreeningFHIR"
                  },
                  {
                    "url": "name",
                    "valueString": "Right Mastectomy Procedure"
                  },
                  {
                    "url": "statement",
                    "valueString": "define \"Right Mastectomy Procedure\":\n  ( ( [Procedure: \"Unilateral Mastectomy Right\"] ).isProcedurePerformed ( ) ) UnilateralMastectomyRightPerformed\n    where UnilateralMastectomyRightPerformed.performed.toInterval ( ) ends on or before end of \"Measurement Period\""
                  },
                  {
                    "url": "displaySequence",
                    "valueInteger": 7
                  }
                ]
              },
              {
                "url": "http://hl7.org/fhir/us/cqfmeasures/StructureDefinition/cqfm-logicDefinition",
                "extension": [
                  {
                    "url": "libraryName",
                    "valueString": "BreastCancerScreeningFHIR"
                  },
                  {
                    "url": "name",
                    "valueString": "Left Mastectomy Diagnosis"
                  },
                  {
                    "url": "statement",
                    "valueString": "define \"Left Mastectomy Diagnosis\":\n  ( [Condition: \"Status Post Left Mastectomy\"]\n    union ( [Condition: \"Unilateral Mastectomy, Unspecified Laterality\"] UnilateralMastectomyDiagnosis\n        where exists ( UnilateralMastectomyDiagnosis.bodySite S\n            where S ~ \"Left (qualifier value)\"\n        )\n    ) ) LeftMastectomy\n    where LeftMastectomy.prevalenceInterval ( ) starts on or before end of \"Measurement Period\""
                  },
                  {
                    "url": "displaySequence",
                    "valueInteger": 8
                  }
                ]
              },
              {
                "url": "http://hl7.org/fhir/us/cqfmeasures/StructureDefinition/cqfm-logicDefinition",
                "extension": [
                  {
                    "url": "libraryName",
                    "valueString": "BreastCancerScreeningFHIR"
                  },
                  {
                    "url": "name",
                    "valueString": "Left Mastectomy Procedure"
                  },
                  {
                    "url": "statement",
                    "valueString": "define \"Left Mastectomy Procedure\":\n  ( ( [Procedure: \"Unilateral Mastectomy Left\"] ).isProcedurePerformed ( ) ) UnilateralMastectomyLeftPerformed\n    where UnilateralMastectomyLeftPerformed.performed.toInterval ( ) ends on or before end of \"Measurement Period\""
                  },
                  {
                    "url": "displaySequence",
                    "valueInteger": 9
                  }
                ]
              },
              {
                "url": "http://hl7.org/fhir/us/cqfmeasures/StructureDefinition/cqfm-logicDefinition",
                "extension": [
                  {
                    "url": "libraryName",
                    "valueString": "BreastCancerScreeningFHIR"
                  },
                  {
                    "url": "name",
                    "valueString": "Bilateral Mastectomy Diagnosis"
                  },
                  {
                    "url": "statement",
                    "valueString": "define \"Bilateral Mastectomy Diagnosis\":\n  [Condition: \"History of bilateral mastectomy\"] BilateralMastectomyHistory\n    where BilateralMastectomyHistory.prevalenceInterval ( ) starts on or before end of \"Measurement Period\""
                  },
                  {
                    "url": "displaySequence",
                    "valueInteger": 10
                  }
                ]
              },
              {
                "url": "http://hl7.org/fhir/us/cqfmeasures/StructureDefinition/cqfm-logicDefinition",
                "extension": [
                  {
                    "url": "libraryName",
                    "valueString": "BreastCancerScreeningFHIR"
                  },
                  {
                    "url": "name",
                    "valueString": "Bilateral Mastectomy Procedure"
                  },
                  {
                    "url": "statement",
                    "valueString": "define \"Bilateral Mastectomy Procedure\":\n  ( ( [Procedure: \"Bilateral Mastectomy\"] ).isProcedurePerformed ( ) ) BilateralMastectomyPerformed\n    where BilateralMastectomyPerformed.performed.toInterval ( ) ends on or before end of \"Measurement Period\""
                  },
                  {
                    "url": "displaySequence",
                    "valueInteger": 11
                  }
                ]
              },
              {
                "url": "http://hl7.org/fhir/us/cqfmeasures/StructureDefinition/cqfm-logicDefinition",
                "extension": [
                  {
                    "url": "libraryName",
                    "valueString": "AdvancedIllnessandFrailty"
                  },
                  {
                    "url": "name",
                    "valueString": "Has Criteria Indicating Frailty"
                  },
                  {
                    "url": "statement",
                    "valueString": "define \"Has Criteria Indicating Frailty\":\n  exists ( (([DeviceRequest: \"Frailty Device\"]).isDeviceOrder()) FrailtyDeviceOrder\n      where FrailtyDeviceOrder.doNotPerform() is not true\n      and FrailtyDeviceOrder.authoredOn.toInterval() during day of \"Measurement Period\"\n  )\n    or exists ( (([Observation: \"Medical equipment used\"]).isAssessmentPerformed()) EquipmentUsed\n        where EquipmentUsed.value as Concept in \"Frailty Device\" \n        and EquipmentUsed.effective.toInterval() ends during day of \"Measurement Period\"\n    )\n    or exists ( ([Condition: \"Frailty Diagnosis\"]) FrailtyDiagnosis\n        where FrailtyDiagnosis.prevalenceInterval() overlaps day of \"Measurement Period\"\n    )\n    or exists ( (([Encounter: \"Frailty Encounter\"]).isEncounterPerformed()) FrailtyEncounter\n        where FrailtyEncounter.period.toInterval() overlaps day of \"Measurement Period\"\n    )\n    or exists ( (([Observation: \"Frailty Symptom\"]).isSymptom()) FrailtySymptom\n        where FrailtySymptom.effective.toInterval() overlaps day of \"Measurement Period\"\n    )"
                  },
                  {
                    "url": "displaySequence",
                    "valueInteger": 12
                  }
                ]
              },
              {
                "url": "http://hl7.org/fhir/us/cqfmeasures/StructureDefinition/cqfm-logicDefinition",
                "extension": [
                  {
                    "url": "libraryName",
                    "valueString": "AdvancedIllnessandFrailty"
                  },
                  {
                    "url": "name",
                    "valueString": "Has Advanced Illness in Year Before or During Measurement Period"
                  },
                  {
                    "url": "statement",
                    "valueString": "define \"Has Advanced Illness in Year Before or During Measurement Period\":\nexists ([Condition: \"Advanced Illness\"] AdvancedIllnessDiagnosis\nwhere AdvancedIllnessDiagnosis.prevalenceInterval() starts during day of Interval[start of \"Measurement Period\" - 1 year, end of \"Measurement Period\"])"
                  },
                  {
                    "url": "displaySequence",
                    "valueInteger": 13
                  }
                ]
              },
              {
                "url": "http://hl7.org/fhir/us/cqfmeasures/StructureDefinition/cqfm-logicDefinition",
                "extension": [
                  {
                    "url": "libraryName",
                    "valueString": "AdvancedIllnessandFrailty"
                  },
                  {
                    "url": "name",
                    "valueString": "Has Dementia Medications in Year Before or During Measurement Period"
                  },
                  {
                    "url": "statement",
                    "valueString": "define \"Has Dementia Medications in Year Before or During Measurement Period\":\n  exists (( ([MedicationRequest: medication in \"Dementia Medications\"]).isMedicationActive()) DementiaMedication\n        // https://oncprojectracking.healthit.gov/support/browse/CQLIT-449\n      where DementiaMedication.medicationRequestPeriod() overlaps day of Interval[start of \"Measurement Period\" - 1 year, \n        end of \"Measurement Period\"]\n        // and DementiaMedication.doNotPerform is not true\n        // https://oncprojectracking.healthit.gov/support/browse/CQLIT-447\n  )"
                  },
                  {
                    "url": "displaySequence",
                    "valueInteger": 14
                  }
                ]
              },
              {
                "url": "http://hl7.org/fhir/us/cqfmeasures/StructureDefinition/cqfm-logicDefinition",
                "extension": [
                  {
                    "url": "libraryName",
                    "valueString": "AdvancedIllnessandFrailty"
                  },
                  {
                    "url": "name",
                    "valueString": "Is Age 66 or Older with Advanced Illness and Frailty"
                  },
                  {
                    "url": "statement",
                    "valueString": "define \"Is Age 66 or Older with Advanced Illness and Frailty\":\n   AgeInYearsAt(date from end of \"Measurement Period\")>= 66\n    and \"Has Criteria Indicating Frailty\"\n    and ( \"Has Advanced Illness in Year Before or During Measurement Period\"\n        or \"Has Dementia Medications in Year Before or During Measurement Period\"\n    )"
                  },
                  {
                    "url": "displaySequence",
                    "valueInteger": 15
                  }
                ]
              },
              {
                "url": "http://hl7.org/fhir/us/cqfmeasures/StructureDefinition/cqfm-logicDefinition",
                "extension": [
                  {
                    "url": "libraryName",
                    "valueString": "AdvancedIllnessandFrailty"
                  },
                  {
                    "url": "name",
                    "valueString": "Is Age 66 or Older Living Long Term in a Nursing Home"
                  },
                  {
                    "url": "statement",
                    "valueString": "define \"Is Age 66 or Older Living Long Term in a Nursing Home\":\n  AgeInYearsAt(date from \n     end of \"Measurement Period\"\n  )>= 66\n    and ( ( Last( (([Observation: \"Housing status\"]).isAssessmentPerformed()) HousingStatus    \n          where HousingStatus.effective.toInterval() ends on or before \n          day of end of \"Measurement Period\"\n          sort by \n          end of effective.toInterval() asc\n      )) LastHousingStatus\n        where LastHousingStatus.value ~ \"Lives in a nursing home (finding)\"\n    ) is not null"
                  },
                  {
                    "url": "displaySequence",
                    "valueInteger": 16
                  }
                ]
              },
              {
                "url": "http://hl7.org/fhir/us/cqfmeasures/StructureDefinition/cqfm-logicDefinition",
                "extension": [
                  {
                    "url": "libraryName",
                    "valueString": "PalliativeCare"
                  },
                  {
                    "url": "name",
                    "valueString": "Has Palliative Care in the Measurement Period"
                  },
                  {
                    "url": "statement",
                    "valueString": "define \"Has Palliative Care in the Measurement Period\":\n  exists ((([Observation: \"Functional Assessment of Chronic Illness Therapy - Palliative Care Questionnaire (FACIT-Pal)\"]).isAssessmentPerformed()) PalliativeAssessment\n      where PalliativeAssessment.effective.toInterval() overlaps day of \"Measurement Period\"\n  )\n    or exists ([Condition: \"Palliative Care Diagnosis\"] PalliativeDiagnosis\n        where PalliativeDiagnosis.prevalenceInterval() overlaps day of \"Measurement Period\"\n    )\n    or exists ((([Encounter: \"Palliative Care Encounter\"]).isEncounterPerformed()) PalliativeEncounter\n        where PalliativeEncounter.period.toInterval() overlaps day of \"Measurement Period\"\n    )\n    or exists ((([Procedure: \"Palliative Care Intervention\"]).isInterventionPerformed()) PalliativeIntervention\n        where PalliativeIntervention.performed.toInterval() overlaps day of \"Measurement Period\"\n    )"
                  },
                  {
                    "url": "displaySequence",
                    "valueInteger": 17
                  }
                ]
              },
              {
                "url": "http://hl7.org/fhir/us/cqfmeasures/StructureDefinition/cqfm-logicDefinition",
                "extension": [
                  {
                    "url": "libraryName",
                    "valueString": "BreastCancerScreeningFHIR"
                  },
                  {
                    "url": "name",
                    "valueString": "Denominator Exclusions"
                  },
                  {
                    "url": "statement",
                    "valueString": "define \"Denominator Exclusions\":\n  Hospice.\"Has Hospice Services\"\n    or ( ( exists ( \"Right Mastectomy Diagnosis\" )\n          or exists ( \"Right Mastectomy Procedure\" )\n      )\n        and ( exists ( \"Left Mastectomy Diagnosis\" )\n            or exists ( \"Left Mastectomy Procedure\" )\n        )\n    )\n    or exists \"Bilateral Mastectomy Diagnosis\"\n    or exists \"Bilateral Mastectomy Procedure\"\n    or AIFrailLTCF.\"Is Age 66 or Older with Advanced Illness and Frailty\"\n    or AIFrailLTCF.\"Is Age 66 or Older Living Long Term in a Nursing Home\"\n    or PalliativeCare.\"Has Palliative Care in the Measurement Period\""
                  },
                  {
                    "url": "displaySequence",
                    "valueInteger": 18
                  }
                ]
              },
              {
                "url": "http://hl7.org/fhir/us/cqfmeasures/StructureDefinition/cqfm-logicDefinition",
                "extension": [
                  {
                    "url": "libraryName",
                    "valueString": "Status"
                  },
                  {
                    "url": "name",
                    "valueString": "isDiagnosticStudyPerformed"
                  },
                  {
                    "url": "statement",
                    "valueString": "//Diagnostic Study, Performed\ndefine fluent function isDiagnosticStudyPerformed(Obs List<Observation>):\n  Obs O\n    where O.status in {'final', 'amended', 'corrected' }"
                  },
                  {
                    "url": "displaySequence",
                    "valueInteger": 19
                  }
                ]
              },
              {
                "url": "http://hl7.org/fhir/us/cqfmeasures/StructureDefinition/cqfm-logicDefinition",
                "extension": [
                  {
                    "url": "libraryName",
                    "valueString": "Status"
                  },
                  {
                    "url": "name",
                    "valueString": "isEncounterPerformed"
                  },
                  {
                    "url": "statement",
                    "valueString": "//Encounter, Performed\n//General usage unless required otherwise by measure intent (e.g., follow-up encounters)\ndefine fluent function isEncounterPerformed(Enc List<Encounter>):\n  Enc E\n    where E.status in {'finished', 'arrived', 'triaged', 'in-progress', 'onleave'}"
                  },
                  {
                    "url": "displaySequence",
                    "valueInteger": 20
                  }
                ]
              },
              {
                "url": "http://hl7.org/fhir/us/cqfmeasures/StructureDefinition/cqfm-logicDefinition",
                "extension": [
                  {
                    "url": "libraryName",
                    "valueString": "QICoreCommon"
                  },
                  {
                    "url": "name",
                    "valueString": "toInterval"
                  },
                  {
                    "url": "statement",
                    "valueString": "/*\n@description: Normalizes a value that is a choice of timing-valued types to an equivalent interval\n@comment: Normalizes a choice type of DateTime, Quanitty, Interval<DateTime>, or Interval<Quantity> types\nto an equivalent interval. This selection of choice types is a superset of the majority of choice types that are used as possible\nrepresentations for timing-valued elements in QICore, allowing this function to be used across any resource.\nThe input can be provided as a DateTime, Quantity, Interval<DateTime> or Interval<Quantity>.\nThe intent of this function is to provide a clear and concise mechanism to treat single\nelements that have multiple possible representations as intervals so that logic doesn't have to account\nfor the variability. More complex calculations (such as medication request period or dispense period\ncalculation) need specific guidance and consideration. That guidance may make use of this function, but\nthe focus of this function is on single element calculations where the semantics are unambiguous.\nIf the input is a DateTime, the result a DateTime Interval beginning and ending on that DateTime.\nIf the input is a Quantity, the quantity is expected to be a calendar-duration interpreted as an Age,\nand the result is a DateTime Interval beginning on the Date the patient turned that age and ending immediately before one year later.\nIf the input is a DateTime Interval, the result is the input.\nIf the input is a Quantity Interval, the quantities are expected to be calendar-durations interpreted as an Age, and the result\nis a DateTime Interval beginning on the date the patient turned the age given as the start of the quantity interval, and ending\nimmediately before one year later than the date the patient turned the age given as the end of the quantity interval.\nIf the input is a Timing, an error will be thrown indicating that Timing calculations are not implemented. Any other input will reslt in a null DateTime Interval\n*/\ndefine fluent function toInterval(choice Choice<DateTime, Quantity, Interval<DateTime>, Interval<Quantity>, Timing>):\n  case\n\t  when choice is DateTime then\n    \tInterval[choice as DateTime, choice as DateTime]\n\t\twhen choice is Interval<DateTime> then\n  \t\tchoice as Interval<DateTime>\n\t\twhen choice is Quantity then\n\t\t  Interval[Patient.birthDate + (choice as Quantity),\n\t\t\t  Patient.birthDate + (choice as Quantity) + 1 year)\n\t\twhen choice is Interval<Quantity> then\n\t\t  Interval[Patient.birthDate + (choice.low as Quantity),\n\t\t\t  Patient.birthDate + (choice.high as Quantity) + 1 year)\n\t\twhen choice is Timing then\n      Message(null, true, 'NOT_IMPLEMENTED', 'Error', 'Calculation of an interval from a Timing value is not supported') as Interval<DateTime>\n\t\telse\n\t\t\tnull as Interval<DateTime>\n\tend"
                  },
                  {
                    "url": "displaySequence",
                    "valueInteger": 21
                  }
                ]
              },
              {
                "url": "http://hl7.org/fhir/us/cqfmeasures/StructureDefinition/cqfm-logicDefinition",
                "extension": [
                  {
                    "url": "libraryName",
                    "valueString": "Status"
                  },
                  {
                    "url": "name",
                    "valueString": "isAssessmentPerformed"
                  },
                  {
                    "url": "statement",
                    "valueString": "//This library contains functions that are based on QDM 5.6 to QICore 4.1.1 March 2023 (https://github.com/cqframework/CQL-Formatting-and-Usage-Wiki/wiki/Authoring-Patterns---QICore-v4.1.1). The functions may appear similar to some QICoreCommon functions but different in that they have constraints that are relevant for measures authored by NCQA.\n\n//Assessment, Performed\ndefine fluent function isAssessmentPerformed(Obs List<Observation>):\n  Obs O\n    where O.status in { 'final', 'amended', 'corrected' }\n          and exists ( O.category ObservationCategory\n          where ( ObservationCategory ) ~ \"survey\"\n      )"
                  },
                  {
                    "url": "displaySequence",
                    "valueInteger": 22
                  }
                ]
              },
              {
                "url": "http://hl7.org/fhir/us/cqfmeasures/StructureDefinition/cqfm-logicDefinition",
                "extension": [
                  {
                    "url": "libraryName",
                    "valueString": "FHIRHelpers"
                  },
                  {
                    "url": "name",
                    "valueString": "ToConcept"
                  },
                  {
                    "url": "statement",
                    "valueString": "/*\n@description: Converts the given FHIR [CodeableConcept](https://hl7.org/fhir/datatypes.html#CodeableConcept) value to a CQL Concept.\n*/\ndefine function ToConcept(concept FHIR.CodeableConcept):\n    if concept is null then\n        null\n    else\n        System.Concept {\n            codes: concept.coding C return ToCode(C),\n            display: concept.text.value\n        }"
                  },
                  {
                    "url": "displaySequence",
                    "valueInteger": 23
                  }
                ]
              },
              {
                "url": "http://hl7.org/fhir/us/cqfmeasures/StructureDefinition/cqfm-logicDefinition",
                "extension": [
                  {
                    "url": "libraryName",
                    "valueString": "Status"
                  },
                  {
                    "url": "name",
                    "valueString": "isInterventionOrder"
                  },
                  {
                    "url": "statement",
                    "valueString": "//Intervention, Order: active and completed only    \ndefine fluent function isInterventionOrder(ServiceRequest List<ServiceRequest>):\n  ServiceRequest S\n    where S.status in { 'active', 'completed' }\n      and S.intent = 'order'"
                  },
                  {
                    "url": "displaySequence",
                    "valueInteger": 24
                  }
                ]
              },
              {
                "url": "http://hl7.org/fhir/us/cqfmeasures/StructureDefinition/cqfm-logicDefinition",
                "extension": [
                  {
                    "url": "libraryName",
                    "valueString": "Status"
                  },
                  {
                    "url": "name",
                    "valueString": "isInterventionPerformed"
                  },
                  {
                    "url": "statement",
                    "valueString": "//Intervention, Performed\ndefine fluent function isInterventionPerformed(Proc List<Procedure>):\n  Proc P\n    where P.status ~ 'completed'"
                  },
                  {
                    "url": "displaySequence",
                    "valueInteger": 25
                  }
                ]
              },
              {
                "url": "http://hl7.org/fhir/us/cqfmeasures/StructureDefinition/cqfm-logicDefinition",
                "extension": [
                  {
                    "url": "libraryName",
                    "valueString": "QICoreCommon"
                  },
                  {
                    "url": "name",
                    "valueString": "prevalenceInterval"
                  },
                  {
                    "url": "statement",
                    "valueString": "/*\n@description: Returns an interval representing the normalized prevalence period of a given Condition.\n@comment: Uses the ToInterval and ToAbatementInterval functions to determine the widest potential interval from\nonset to abatement as specified in the given Condition. If the condition is active, or has an abatement date the resulting \ninterval will have a closed ending boundary. Otherwise, the resulting interval will have an open ending boundary.\n*/\ndefine fluent function prevalenceInterval(condition Condition):\nif condition.clinicalStatus ~ \"active\"\n  or condition.clinicalStatus ~ \"recurrence\"\n  or condition.clinicalStatus ~ \"relapse\" then\n  Interval[start of condition.onset.toInterval(), end of condition.abatementInterval()]\nelse\n    (end of condition.abatementInterval()) abatementDate\n    return if abatementDate is null then\n      Interval[start of condition.onset.toInterval(), abatementDate)\n    else\n      Interval[start of condition.onset.toInterval(), abatementDate]"
                  },
                  {
                    "url": "displaySequence",
                    "valueInteger": 26
                  }
                ]
              },
              {
                "url": "http://hl7.org/fhir/us/cqfmeasures/StructureDefinition/cqfm-logicDefinition",
                "extension": [
                  {
                    "url": "libraryName",
                    "valueString": "Status"
                  },
                  {
                    "url": "name",
                    "valueString": "isProcedurePerformed"
                  },
                  {
                    "url": "statement",
                    "valueString": "//Procedure, Performed\ndefine fluent function isProcedurePerformed(Proc List<Procedure>):\n  Proc P\n    where P.status ~ 'completed'"
                  },
                  {
                    "url": "displaySequence",
                    "valueInteger": 27
                  }
                ]
              },
              {
                "url": "http://hl7.org/fhir/us/cqfmeasures/StructureDefinition/cqfm-logicDefinition",
                "extension": [
                  {
                    "url": "libraryName",
                    "valueString": "Status"
                  },
                  {
                    "url": "name",
                    "valueString": "isDeviceOrder"
                  },
                  {
                    "url": "statement",
                    "valueString": "//Device, Order - Personal Use Devices: active and completed only\ndefine fluent function isDeviceOrder(DeviceRequest List<DeviceRequest>):\n  DeviceRequest D\n    where D.status in { 'active', 'completed' }\n      and D.intent = 'order'"
                  },
                  {
                    "url": "displaySequence",
                    "valueInteger": 28
                  }
                ]
              },
              {
                "url": "http://hl7.org/fhir/us/cqfmeasures/StructureDefinition/cqfm-logicDefinition",
                "extension": [
                  {
                    "url": "libraryName",
                    "valueString": "QICoreCommon"
                  },
                  {
                    "url": "name",
                    "valueString": "doNotPerform"
                  },
                  {
                    "url": "statement",
                    "valueString": "/*\n@description: Returns true if the given DeviceRequest is a negation (i.e. do not perform this order)\n*/\ndefine fluent function doNotPerform(deviceRequest DeviceRequest):\n  singleton from (\n    deviceRequest.modifierExtension E\n      where E.url = 'http://hl7.org/fhir/us/qicore/StructureDefinition/qicore-doNotPerform'\n      return E.value as Boolean\n  )"
                  },
                  {
                    "url": "displaySequence",
                    "valueInteger": 29
                  }
                ]
              },
              {
                "url": "http://hl7.org/fhir/us/cqfmeasures/StructureDefinition/cqfm-logicDefinition",
                "extension": [
                  {
                    "url": "libraryName",
                    "valueString": "Status"
                  },
                  {
                    "url": "name",
                    "valueString": "isSymptom"
                  },
                  {
                    "url": "statement",
                    "valueString": "//Symptom\ndefine fluent function isSymptom(Obs List<Observation>):\n  Obs O\n    where O.status in { 'preliminary', 'final', 'amended', 'corrected' }"
                  },
                  {
                    "url": "displaySequence",
                    "valueInteger": 30
                  }
                ]
              },
              {
                "url": "http://hl7.org/fhir/us/cqfmeasures/StructureDefinition/cqfm-logicDefinition",
                "extension": [
                  {
                    "url": "libraryName",
                    "valueString": "Status"
                  },
                  {
                    "url": "name",
                    "valueString": "isMedicationActive"
                  },
                  {
                    "url": "statement",
                    "valueString": "//Medication, Active\ndefine fluent function isMedicationActive(MedicationRequest List<MedicationRequest>):\n  MedicationRequest M\n    where M.status = 'active'\n      and M.intent = 'order'"
                  },
                  {
                    "url": "displaySequence",
                    "valueInteger": 31
                  }
                ]
              },
              {
                "url": "http://hl7.org/fhir/us/cqfmeasures/StructureDefinition/cqfm-logicDefinition",
                "extension": [
                  {
                    "url": "libraryName",
                    "valueString": "CumulativeMedicationDuration"
                  },
                  {
                    "url": "name",
                    "valueString": "medicationRequestPeriod"
                  },
                  {
                    "url": "statement",
                    "valueString": "define fluent function medicationRequestPeriod(Request \"MedicationRequest\"):\n  Request R\n    let\n      dosage: singleton from R.dosageInstruction,\n      doseAndRate: singleton from dosage.doseAndRate,\n      timing: dosage.timing,\n      frequency: Coalesce(timing.repeat.frequencyMax, timing.repeat.frequency),\n      period: Quantity(timing.repeat.period, timing.repeat.periodUnit),\n      doseRange: doseAndRate.dose,\n      doseQuantity: doseAndRate.dose,\n      dose: Coalesce(end of doseRange, doseQuantity),\n      dosesPerDay: Coalesce(ToDaily(frequency, period), Count(timing.repeat.timeOfDay), 1.0),\n      boundsPeriod: timing.repeat.bounds as Interval<DateTime>,\n      daysSupply: (convert R.dispenseRequest.expectedSupplyDuration to days).value,\n      quantity: R.dispenseRequest.quantity,\n      refills: Coalesce(R.dispenseRequest.numberOfRepeatsAllowed, 0),\n      startDate:\n        Coalesce(\n          date from start of boundsPeriod,\n          date from R.authoredOn,\n          date from start of R.dispenseRequest.validityPeriod\n        ),\n      totalDaysSupplied: Coalesce(daysSupply, quantity.value / (dose.value * dosesPerDay)) * (1 + refills)\n    return\n      if startDate is not null and totalDaysSupplied is not null then\n        Interval[startDate, startDate + Quantity(totalDaysSupplied - 1, 'day') ]\n      else if startDate is not null and boundsPeriod.\"high\" is not null then\n        Interval[startDate, date from end of boundsPeriod]\n      else\n        null"
                  },
                  {
                    "url": "displaySequence",
                    "valueInteger": 32
                  }
                ]
              },
              {
                "url": "http://hl7.org/fhir/us/cqfmeasures/StructureDefinition/cqfm-logicDefinition",
                "extension": [
                  {
                    "url": "libraryName",
                    "valueString": "CumulativeMedicationDuration"
                  },
                  {
                    "url": "name",
                    "valueString": "Quantity"
                  },
                  {
                    "url": "statement",
                    "valueString": "/**********************************************************************/\n/* Functions in this region are copied from opioid-mme-r4             */\n/**********************************************************************/\n\ndefine function Quantity(value Decimal, unit String):\n  if value is not null then\n    System.Quantity { value: value, unit: unit }\n  else\n    null"
                  },
                  {
                    "url": "displaySequence",
                    "valueInteger": 33
                  }
                ]
              },
              {
                "url": "http://hl7.org/fhir/us/cqfmeasures/StructureDefinition/cqfm-logicDefinition",
                "extension": [
                  {
                    "url": "libraryName",
                    "valueString": "CumulativeMedicationDuration"
                  },
                  {
                    "url": "name",
                    "valueString": "ToDaily"
                  },
                  {
                    "url": "statement",
                    "valueString": "/*\n Goal is to get to number of days\n Two broad approaches to the calculation:\n  1) Based on supply and frequency, calculate the number of expected days the medication will cover/has covered\n  2) Based on relevant period, determine a covered interval and calculate the length of that interval in days\nThis topic covers several use cases and illustrates how to calculate Cumulative\nMedication Duration for each type of medication resource using the supply and\nfrequency approach.\n*/\n\n/*\n  For the first approach, we need to get from frequency to a frequency/day\n  So we define ToDaily\n*/\n\n/*\n  Calculates daily frequency given frequency within a period\n*/\ndefine function ToDaily(frequency System.Integer, period System.Quantity):\n  case period.unit\n    when 'h' then frequency * (24.0 / period.value)\n    when 'min' then frequency * (24.0 / period.value) * 60\n    when 's' then frequency * (24.0 / period.value) * 60 * 60\n    when 'd' then frequency * (24.0 / period.value) / 24\n    when 'wk' then frequency * (24.0 / period.value) / (24 * 7)\n    when 'mo' then frequency * (24.0 / period.value) / (24 * 30) /* assuming 30 days in month */\n    when 'a' then frequency * (24.0 / period.value) / (24 * 365) /* assuming 365 days in year */\n    when 'hour' then frequency * (24.0 / period.value)\n    when 'minute' then frequency * (24.0 / period.value) * 60\n    when 'second' then frequency * (24.0 / period.value) * 60 * 60\n    when 'day' then frequency * (24.0 / period.value) / 24\n    when 'week' then frequency * (24.0 / period.value) / (24 * 7)\n    when 'month' then frequency * (24.0 / period.value) / (24 * 30) /* assuming 30 days in month */\n    when 'year' then frequency * (24.0 / period.value) / (24 * 365) /* assuming 365 days in year */\n    when 'hours' then frequency * (24.0 / period.value)\n    when 'minutes' then frequency * (24.0 / period.value) * 60\n    when 'seconds' then frequency * (24.0 / period.value) * 60 * 60\n    when 'days' then frequency * (24.0 / period.value) / 24\n    when 'weeks' then frequency * (24.0 / period.value) / (24 * 7)\n    when 'months' then frequency * (24.0 / period.value) / (24 * 30) /* assuming 30 days in month */\n    when 'years' then frequency * (24.0 / period.value) / (24 * 365) /* assuming 365 days in year */\n    else Message(null, true, 'CMDLogic.ToDaily.UnknownUnit', ErrorLevel, 'Unknown unit ' & period.unit)\n  end"
                  },
                  {
                    "url": "displaySequence",
                    "valueInteger": 34
                  }
                ]
              }
            ],
            "name": "EffectiveDataRequirements",
            "status": "active",
            "type": {
              "coding": [
                {
                  "system": "http://terminology.hl7.org/CodeSystem/library-type",
                  "code": "module-definition"
                }
              ]
            },
            "relatedArtifact": [
              {
                "type": "depends-on",
                "display": "Library Status",
                "resource": "Library/Status|1.8.000"
              },
              {
                "type": "depends-on",
                "display": "Library QICoreCommon",
                "resource": "Library/QICoreCommon|2.1.000"
              },
              {
                "type": "depends-on",
                "display": "Library FHIRHelpers",
                "resource": "Library/FHIRHelpers|4.4.000"
              },
              {
                "type": "depends-on",
                "display": "Library AdultOutpatientEncounters",
                "resource": "Library/AdultOutpatientEncounters|4.11.000"
              },
              {
                "type": "depends-on",
                "display": "Library Hospice",
                "resource": "Library/Hospice|6.12.000"
              },
              {
                "type": "depends-on",
                "display": "Library AIFrailLTCF",
                "resource": "Library/AdvancedIllnessandFrailty|1.16.000"
              },
              {
                "type": "depends-on",
                "display": "Library CMD",
                "resource": "Library/CumulativeMedicationDuration|4.1.000"
              },
              {
                "type": "depends-on",
                "display": "Library PalliativeCare",
                "resource": "Library/PalliativeCare|1.11.000"
              },
              {
                "type": "depends-on",
                "display": "Code system SNOMEDCT",
                "resource": "http://snomed.info/sct"
              },
              {
                "type": "depends-on",
                "display": "Code system ObservationCategoryCodes",
                "resource": "http://terminology.hl7.org/CodeSystem/observation-category"
              },
              {
                "type": "depends-on",
                "display": "Code system LOINC",
                "resource": "http://loinc.org"
              },
              {
                "type": "depends-on",
                "display": "Value set Mammography",
                "resource": "http://cts.nlm.nih.gov/fhir/ValueSet/2.16.840.1.113883.3.464.1003.108.12.1018"
              },
              {
                "type": "depends-on",
                "display": "Value set Office Visit",
                "resource": "http://cts.nlm.nih.gov/fhir/ValueSet/2.16.840.1.113883.3.464.1003.101.12.1001"
              },
              {
                "type": "depends-on",
                "display": "Value set Annual Wellness Visit",
                "resource": "http://cts.nlm.nih.gov/fhir/ValueSet/2.16.840.1.113883.3.526.3.1240"
              },
              {
                "type": "depends-on",
                "display": "Value set Preventive Care Services Established Office Visit, 18 and Up",
                "resource": "http://cts.nlm.nih.gov/fhir/ValueSet/2.16.840.1.113883.3.464.1003.101.12.1025"
              },
              {
                "type": "depends-on",
                "display": "Value set Preventive Care Services Initial Office Visit, 18 and Up",
                "resource": "http://cts.nlm.nih.gov/fhir/ValueSet/2.16.840.1.113883.3.464.1003.101.12.1023"
              },
              {
                "type": "depends-on",
                "display": "Value set Home Healthcare Services",
                "resource": "http://cts.nlm.nih.gov/fhir/ValueSet/2.16.840.1.113883.3.464.1003.101.12.1016"
              },
              {
                "type": "depends-on",
                "display": "Value set Virtual Encounter",
                "resource": "http://cts.nlm.nih.gov/fhir/ValueSet/2.16.840.1.113883.3.464.1003.101.12.1089"
              },
              {
                "type": "depends-on",
                "display": "Value set Telephone Visits",
                "resource": "http://cts.nlm.nih.gov/fhir/ValueSet/2.16.840.1.113883.3.464.1003.101.12.1080"
              },
              {
                "type": "depends-on",
                "display": "Value set Encounter Inpatient",
                "resource": "http://cts.nlm.nih.gov/fhir/ValueSet/2.16.840.1.113883.3.666.5.307"
              },
              {
                "type": "depends-on",
                "display": "Value set Hospice Encounter",
                "resource": "http://cts.nlm.nih.gov/fhir/ValueSet/2.16.840.1.113883.3.464.1003.1003"
              },
              {
                "type": "depends-on",
                "display": "Value set Hospice Care Ambulatory",
                "resource": "http://cts.nlm.nih.gov/fhir/ValueSet/2.16.840.1.113883.3.526.3.1584"
              },
              {
                "type": "depends-on",
                "display": "Value set Hospice Diagnosis",
                "resource": "http://cts.nlm.nih.gov/fhir/ValueSet/2.16.840.1.113883.3.464.1003.1165"
              },
              {
                "type": "depends-on",
                "display": "Value set Status Post Right Mastectomy",
                "resource": "http://cts.nlm.nih.gov/fhir/ValueSet/2.16.840.1.113883.3.464.1003.198.12.1070"
              },
              {
                "type": "depends-on",
                "display": "Value set Unilateral Mastectomy, Unspecified Laterality",
                "resource": "http://cts.nlm.nih.gov/fhir/ValueSet/2.16.840.1.113883.3.464.1003.198.12.1071"
              },
              {
                "type": "depends-on",
                "display": "Value set Unilateral Mastectomy Right",
                "resource": "http://cts.nlm.nih.gov/fhir/ValueSet/2.16.840.1.113883.3.464.1003.198.12.1134"
              },
              {
                "type": "depends-on",
                "display": "Value set Status Post Left Mastectomy",
                "resource": "http://cts.nlm.nih.gov/fhir/ValueSet/2.16.840.1.113883.3.464.1003.198.12.1069"
              },
              {
                "type": "depends-on",
                "display": "Value set Unilateral Mastectomy Left",
                "resource": "http://cts.nlm.nih.gov/fhir/ValueSet/2.16.840.1.113883.3.464.1003.198.12.1133"
              },
              {
                "type": "depends-on",
                "display": "Value set History of bilateral mastectomy",
                "resource": "http://cts.nlm.nih.gov/fhir/ValueSet/2.16.840.1.113883.3.464.1003.198.12.1068"
              },
              {
                "type": "depends-on",
                "display": "Value set Bilateral Mastectomy",
                "resource": "http://cts.nlm.nih.gov/fhir/ValueSet/2.16.840.1.113883.3.464.1003.198.12.1005"
              },
              {
                "type": "depends-on",
                "display": "Value set Frailty Device",
                "resource": "http://cts.nlm.nih.gov/fhir/ValueSet/2.16.840.1.113883.3.464.1003.118.12.1300"
              },
              {
                "type": "depends-on",
                "display": "Value set Frailty Diagnosis",
                "resource": "http://cts.nlm.nih.gov/fhir/ValueSet/2.16.840.1.113883.3.464.1003.113.12.1074"
              },
              {
                "type": "depends-on",
                "display": "Value set Frailty Encounter",
                "resource": "http://cts.nlm.nih.gov/fhir/ValueSet/2.16.840.1.113883.3.464.1003.101.12.1088"
              },
              {
                "type": "depends-on",
                "display": "Value set Frailty Symptom",
                "resource": "http://cts.nlm.nih.gov/fhir/ValueSet/2.16.840.1.113883.3.464.1003.113.12.1075"
              },
              {
                "type": "depends-on",
                "display": "Value set Advanced Illness",
                "resource": "http://cts.nlm.nih.gov/fhir/ValueSet/2.16.840.1.113883.3.464.1003.110.12.1082"
              },
              {
                "type": "depends-on",
                "display": "Value set Dementia Medications",
                "resource": "http://cts.nlm.nih.gov/fhir/ValueSet/2.16.840.1.113883.3.464.1003.196.12.1510"
              },
              {
                "type": "depends-on",
                "display": "Value set Palliative Care Diagnosis",
                "resource": "http://cts.nlm.nih.gov/fhir/ValueSet/2.16.840.1.113883.3.464.1003.1167"
              },
              {
                "type": "depends-on",
                "display": "Value set Palliative Care Encounter",
                "resource": "http://cts.nlm.nih.gov/fhir/ValueSet/2.16.840.1.113883.3.464.1003.101.12.1090"
              },
              {
                "type": "depends-on",
                "display": "Value set Palliative Care Intervention",
                "resource": "http://cts.nlm.nih.gov/fhir/ValueSet/2.16.840.1.113883.3.464.1003.198.12.1135"
              }
            ],
            "parameter": [
              {
                "name": "Measurement Period",
                "use": "in",
                "min": 0,
                "max": "1",
                "type": "Period"
              },
              {
                "name": "ErrorLevel",
                "use": "in",
                "min": 0,
                "max": "1",
                "type": "string"
              },
              {
                "name": "Numerator",
                "use": "out",
                "min": 0,
                "max": "1",
                "type": "boolean"
              },
              {
                "name": "Denominator",
                "use": "out",
                "min": 0,
                "max": "1",
                "type": "boolean"
              },
              {
                "name": "Initial Population",
                "use": "out",
                "min": 0,
                "max": "1",
                "type": "boolean"
              },
              {
                "name": "Denominator Exclusions",
                "use": "out",
                "min": 0,
                "max": "1",
                "type": "boolean"
              }
            ],
            "dataRequirement": [
              {
                "type": "Observation",
                "profile": [
                  "http://hl7.org/fhir/us/qicore/StructureDefinition/qicore-observation"
                ],
                "mustSupport": [
                  "code",
                  "effective",
                  "status",
                  "status.value",
                  "category"
                ],
                "codeFilter": [
                  {
                    "path": "code",
                    "valueSet": "http://cts.nlm.nih.gov/fhir/ValueSet/2.16.840.1.113883.3.464.1003.108.12.1018"
                  }
                ]
              },
              {
                "type": "Observation",
                "profile": [
                  "http://hl7.org/fhir/us/qicore/StructureDefinition/qicore-observation"
                ],
                "mustSupport": [
                  "code",
                  "value",
                  "effective",
                  "status",
                  "status.value",
                  "category"
                ],
                "codeFilter": [
                  {
                    "path": "code",
                    "code": [
                      {
                        "system": "http://loinc.org",
                        "code": "45755-6",
                        "display": "Hospice care [Minimum Data Set]"
                      }
                    ]
                  },
                  {
                    "path": "value"
                  }
                ]
              },
              {
                "type": "Observation",
                "profile": [
                  "http://hl7.org/fhir/us/qicore/StructureDefinition/qicore-observation"
                ],
                "mustSupport": [
                  "code",
                  "value",
                  "effective",
                  "status",
                  "status.value",
                  "category"
                ],
                "codeFilter": [
                  {
                    "path": "code",
                    "code": [
                      {
                        "system": "http://loinc.org",
                        "code": "98181-1",
                        "display": "Medical equipment used"
                      }
                    ]
                  },
                  {
                    "path": "value",
                    "valueSet": "http://cts.nlm.nih.gov/fhir/ValueSet/2.16.840.1.113883.3.464.1003.118.12.1300"
                  }
                ],
                "dateFilter": [
                  {
                    "path": "effective",
                    "valuePeriod": {
                      "extension": [
                        {
                          "url": "http://hl7.org/fhir/StructureDefinition/cqf-expression",
                          "valueExpression": {
                            "language": "text/cql-identifier",
                            "expression": "Measurement Period"
                          }
                        }
                      ]
                    }
                  }
                ]
              },
              {
                "type": "Observation",
                "profile": [
                  "http://hl7.org/fhir/us/qicore/StructureDefinition/qicore-observation"
                ],
                "mustSupport": [
                  "code",
                  "effective",
                  "status",
                  "status.value",
                  "category"
                ],
                "codeFilter": [
                  {
                    "path": "code",
                    "valueSet": "http://cts.nlm.nih.gov/fhir/ValueSet/2.16.840.1.113883.3.464.1003.113.12.1075"
                  }
                ]
              },
              {
                "type": "Observation",
                "profile": [
                  "http://hl7.org/fhir/us/qicore/StructureDefinition/qicore-observation"
                ],
                "mustSupport": [
                  "code",
                  "effective",
                  "status",
                  "status.value",
                  "category"
                ],
                "codeFilter": [
                  {
                    "path": "code",
                    "code": [
                      {
                        "system": "http://loinc.org",
                        "code": "71802-3",
                        "display": "Housing status"
                      }
                    ]
                  }
                ],
                "dateFilter": [
                  {
                    "path": "effective"
                  }
                ]
              },
              {
                "type": "Observation",
                "profile": [
                  "http://hl7.org/fhir/us/qicore/StructureDefinition/qicore-observation"
                ],
                "mustSupport": [
                  "code",
                  "effective",
                  "value",
                  "status",
                  "status.value",
                  "category"
                ],
                "codeFilter": [
                  {
                    "path": "code",
                    "code": [
                      {
                        "system": "http://loinc.org",
                        "code": "71802-3",
                        "display": "Housing status"
                      }
                    ]
                  },
                  {
                    "path": "value"
                  }
                ],
                "dateFilter": [
                  {
                    "path": "effective"
                  }
                ]
              },
              {
                "type": "Observation",
                "profile": [
                  "http://hl7.org/fhir/us/qicore/StructureDefinition/qicore-observation"
                ],
                "mustSupport": [
                  "code",
                  "effective",
                  "status",
                  "status.value",
                  "category"
                ],
                "codeFilter": [
                  {
                    "path": "code",
                    "code": [
                      {
                        "system": "http://loinc.org",
                        "code": "71007-9",
                        "display": "Functional Assessment of Chronic Illness Therapy - Palliative Care Questionnaire (FACIT-Pal)"
                      }
                    ]
                  }
                ]
              },
              {
                "type": "Patient",
                "profile": [
                  "http://hl7.org/fhir/us/qicore/StructureDefinition/qicore-patient"
                ]
              },
              {
                "type": "Encounter",
                "profile": [
                  "http://hl7.org/fhir/us/qicore/StructureDefinition/qicore-encounter"
                ],
                "mustSupport": ["type", "status", "status.value", "period"],
                "codeFilter": [
                  {
                    "path": "type",
                    "valueSet": "http://cts.nlm.nih.gov/fhir/ValueSet/2.16.840.1.113883.3.464.1003.101.12.1001"
                  }
                ]
              },
              {
                "type": "Encounter",
                "profile": [
                  "http://hl7.org/fhir/us/qicore/StructureDefinition/qicore-encounter"
                ],
                "mustSupport": ["type", "status", "status.value", "period"],
                "codeFilter": [
                  {
                    "path": "type",
                    "valueSet": "http://cts.nlm.nih.gov/fhir/ValueSet/2.16.840.1.113883.3.526.3.1240"
                  }
                ]
              },
              {
                "type": "Encounter",
                "profile": [
                  "http://hl7.org/fhir/us/qicore/StructureDefinition/qicore-encounter"
                ],
                "mustSupport": ["type", "status", "status.value", "period"],
                "codeFilter": [
                  {
                    "path": "type",
                    "valueSet": "http://cts.nlm.nih.gov/fhir/ValueSet/2.16.840.1.113883.3.464.1003.101.12.1025"
                  }
                ]
              },
              {
                "type": "Encounter",
                "profile": [
                  "http://hl7.org/fhir/us/qicore/StructureDefinition/qicore-encounter"
                ],
                "mustSupport": ["type", "status", "status.value", "period"],
                "codeFilter": [
                  {
                    "path": "type",
                    "valueSet": "http://cts.nlm.nih.gov/fhir/ValueSet/2.16.840.1.113883.3.464.1003.101.12.1023"
                  }
                ]
              },
              {
                "type": "Encounter",
                "profile": [
                  "http://hl7.org/fhir/us/qicore/StructureDefinition/qicore-encounter"
                ],
                "mustSupport": ["type", "status", "status.value", "period"],
                "codeFilter": [
                  {
                    "path": "type",
                    "valueSet": "http://cts.nlm.nih.gov/fhir/ValueSet/2.16.840.1.113883.3.464.1003.101.12.1016"
                  }
                ]
              },
              {
                "type": "Encounter",
                "profile": [
                  "http://hl7.org/fhir/us/qicore/StructureDefinition/qicore-encounter"
                ],
                "mustSupport": ["type", "status", "status.value", "period"],
                "codeFilter": [
                  {
                    "path": "type",
                    "valueSet": "http://cts.nlm.nih.gov/fhir/ValueSet/2.16.840.1.113883.3.464.1003.101.12.1089"
                  }
                ]
              },
              {
                "type": "Encounter",
                "profile": [
                  "http://hl7.org/fhir/us/qicore/StructureDefinition/qicore-encounter"
                ],
                "mustSupport": ["type", "status", "status.value", "period"],
                "codeFilter": [
                  {
                    "path": "type",
                    "valueSet": "http://cts.nlm.nih.gov/fhir/ValueSet/2.16.840.1.113883.3.464.1003.101.12.1080"
                  }
                ]
              },
              {
                "type": "Encounter",
                "profile": [
                  "http://hl7.org/fhir/us/qicore/StructureDefinition/qicore-encounter"
                ],
                "mustSupport": [
                  "type",
                  "hospitalization",
                  "hospitalization.dischargeDisposition",
                  "period",
                  "status",
                  "status.value"
                ],
                "codeFilter": [
                  {
                    "path": "type",
                    "valueSet": "http://cts.nlm.nih.gov/fhir/ValueSet/2.16.840.1.113883.3.666.5.307"
                  }
                ]
              },
              {
                "type": "Encounter",
                "profile": [
                  "http://hl7.org/fhir/us/qicore/StructureDefinition/qicore-encounter"
                ],
                "mustSupport": ["type", "period", "status", "status.value"],
                "codeFilter": [
                  {
                    "path": "type",
                    "valueSet": "http://cts.nlm.nih.gov/fhir/ValueSet/2.16.840.1.113883.3.464.1003.1003"
                  }
                ]
              },
              {
                "type": "Encounter",
                "profile": [
                  "http://hl7.org/fhir/us/qicore/StructureDefinition/qicore-encounter"
                ],
                "mustSupport": ["type", "period", "status", "status.value"],
                "codeFilter": [
                  {
                    "path": "type",
                    "valueSet": "http://cts.nlm.nih.gov/fhir/ValueSet/2.16.840.1.113883.3.464.1003.101.12.1088"
                  }
                ]
              },
              {
                "type": "Encounter",
                "profile": [
                  "http://hl7.org/fhir/us/qicore/StructureDefinition/qicore-encounter"
                ],
                "mustSupport": ["type", "period", "status", "status.value"],
                "codeFilter": [
                  {
                    "path": "type",
                    "valueSet": "http://cts.nlm.nih.gov/fhir/ValueSet/2.16.840.1.113883.3.464.1003.101.12.1090"
                  }
                ]
              },
              {
                "type": "ServiceRequest",
                "profile": [
                  "http://hl7.org/fhir/us/qicore/StructureDefinition/qicore-servicerequest"
                ],
                "mustSupport": [
                  "code",
                  "authoredOn",
                  "authoredOn.value",
                  "status",
                  "status.value",
                  "intent",
                  "intent.value"
                ],
                "codeFilter": [
                  {
                    "path": "code",
                    "valueSet": "http://cts.nlm.nih.gov/fhir/ValueSet/2.16.840.1.113883.3.526.3.1584"
                  }
                ]
              },
              {
                "type": "Procedure",
                "profile": [
                  "http://hl7.org/fhir/us/qicore/StructureDefinition/qicore-procedure"
                ],
                "mustSupport": ["code", "performed", "status", "status.value"],
                "codeFilter": [
                  {
                    "path": "code",
                    "valueSet": "http://cts.nlm.nih.gov/fhir/ValueSet/2.16.840.1.113883.3.526.3.1584"
                  }
                ]
              },
              {
                "type": "Procedure",
                "profile": [
                  "http://hl7.org/fhir/us/qicore/StructureDefinition/qicore-procedure"
                ],
                "mustSupport": ["code", "performed", "status", "status.value"],
                "codeFilter": [
                  {
                    "path": "code",
                    "valueSet": "http://cts.nlm.nih.gov/fhir/ValueSet/2.16.840.1.113883.3.464.1003.198.12.1134"
                  }
                ],
                "dateFilter": [
                  {
                    "path": "performed"
                  }
                ]
              },
              {
                "type": "Procedure",
                "profile": [
                  "http://hl7.org/fhir/us/qicore/StructureDefinition/qicore-procedure"
                ],
                "mustSupport": ["code", "performed", "status", "status.value"],
                "codeFilter": [
                  {
                    "path": "code",
                    "valueSet": "http://cts.nlm.nih.gov/fhir/ValueSet/2.16.840.1.113883.3.464.1003.198.12.1133"
                  }
                ],
                "dateFilter": [
                  {
                    "path": "performed"
                  }
                ]
              },
              {
                "type": "Procedure",
                "profile": [
                  "http://hl7.org/fhir/us/qicore/StructureDefinition/qicore-procedure"
                ],
                "mustSupport": ["code", "performed", "status", "status.value"],
                "codeFilter": [
                  {
                    "path": "code",
                    "valueSet": "http://cts.nlm.nih.gov/fhir/ValueSet/2.16.840.1.113883.3.464.1003.198.12.1005"
                  }
                ],
                "dateFilter": [
                  {
                    "path": "performed"
                  }
                ]
              },
              {
                "type": "Procedure",
                "profile": [
                  "http://hl7.org/fhir/us/qicore/StructureDefinition/qicore-procedure"
                ],
                "mustSupport": ["code", "performed", "status", "status.value"],
                "codeFilter": [
                  {
                    "path": "code",
                    "valueSet": "http://cts.nlm.nih.gov/fhir/ValueSet/2.16.840.1.113883.3.464.1003.198.12.1135"
                  }
                ]
              },
              {
                "type": "Condition",
                "profile": [
                  "http://hl7.org/fhir/us/qicore/StructureDefinition/qicore-condition"
                ],
                "mustSupport": ["code"],
                "codeFilter": [
                  {
                    "path": "code",
                    "valueSet": "http://cts.nlm.nih.gov/fhir/ValueSet/2.16.840.1.113883.3.464.1003.1165"
                  }
                ]
              },
              {
                "type": "Condition",
                "profile": [
                  "http://hl7.org/fhir/us/qicore/StructureDefinition/qicore-condition"
                ],
                "mustSupport": ["code"],
                "codeFilter": [
                  {
                    "path": "code",
                    "valueSet": "http://cts.nlm.nih.gov/fhir/ValueSet/2.16.840.1.113883.3.464.1003.198.12.1070"
                  }
                ]
              },
              {
                "type": "Condition",
                "profile": [
                  "http://hl7.org/fhir/us/qicore/StructureDefinition/qicore-condition"
                ],
                "mustSupport": ["code", "bodySite"],
                "codeFilter": [
                  {
                    "path": "code",
                    "valueSet": "http://cts.nlm.nih.gov/fhir/ValueSet/2.16.840.1.113883.3.464.1003.198.12.1071"
                  }
                ]
              },
              {
                "type": "Condition",
                "profile": [
                  "http://hl7.org/fhir/us/qicore/StructureDefinition/qicore-condition"
                ],
                "mustSupport": ["code"],
                "codeFilter": [
                  {
                    "path": "code",
                    "valueSet": "http://cts.nlm.nih.gov/fhir/ValueSet/2.16.840.1.113883.3.464.1003.198.12.1069"
                  }
                ]
              },
              {
                "type": "Condition",
                "profile": [
                  "http://hl7.org/fhir/us/qicore/StructureDefinition/qicore-condition"
                ],
                "mustSupport": ["code"],
                "codeFilter": [
                  {
                    "path": "code",
                    "valueSet": "http://cts.nlm.nih.gov/fhir/ValueSet/2.16.840.1.113883.3.464.1003.198.12.1068"
                  }
                ]
              },
              {
                "type": "Condition",
                "profile": [
                  "http://hl7.org/fhir/us/qicore/StructureDefinition/qicore-condition"
                ],
                "mustSupport": ["code"],
                "codeFilter": [
                  {
                    "path": "code",
                    "valueSet": "http://cts.nlm.nih.gov/fhir/ValueSet/2.16.840.1.113883.3.464.1003.113.12.1074"
                  }
                ]
              },
              {
                "type": "Condition",
                "profile": [
                  "http://hl7.org/fhir/us/qicore/StructureDefinition/qicore-condition"
                ],
                "mustSupport": ["code"],
                "codeFilter": [
                  {
                    "path": "code",
                    "valueSet": "http://cts.nlm.nih.gov/fhir/ValueSet/2.16.840.1.113883.3.464.1003.110.12.1082"
                  }
                ]
              },
              {
                "type": "Condition",
                "profile": [
                  "http://hl7.org/fhir/us/qicore/StructureDefinition/qicore-condition"
                ],
                "mustSupport": ["code"],
                "codeFilter": [
                  {
                    "path": "code",
                    "valueSet": "http://cts.nlm.nih.gov/fhir/ValueSet/2.16.840.1.113883.3.464.1003.1167"
                  }
                ]
              },
              {
                "type": "DeviceRequest",
                "profile": [
                  "http://hl7.org/fhir/us/qicore/StructureDefinition/qicore-devicerequest"
                ],
                "mustSupport": [
                  "code",
                  "status",
                  "status.value",
                  "intent",
                  "intent.value",
                  "url",
                  "url.value",
                  "value",
                  "authoredOn",
                  "authoredOn.value"
                ],
                "codeFilter": [
                  {
                    "path": "code",
                    "valueSet": "http://cts.nlm.nih.gov/fhir/ValueSet/2.16.840.1.113883.3.464.1003.118.12.1300"
                  }
                ]
              },
              {
                "type": "MedicationRequest",
                "profile": [
                  "http://hl7.org/fhir/us/qicore/StructureDefinition/qicore-medicationrequest"
                ],
                "mustSupport": [
                  "medication",
                  "status",
                  "status.value",
                  "intent",
                  "intent.value",
                  "dosageInstruction",
                  "dispenseRequest",
                  "dispenseRequest.expectedSupplyDuration",
                  "dispenseRequest.quantity",
                  "dispenseRequest.numberOfRepeatsAllowed",
                  "dispenseRequest.numberOfRepeatsAllowed.value",
                  "authoredOn",
                  "authoredOn.value",
                  "dispenseRequest.validityPeriod"
                ],
                "codeFilter": [
                  {
                    "path": "medication",
                    "valueSet": "http://cts.nlm.nih.gov/fhir/ValueSet/2.16.840.1.113883.3.464.1003.196.12.1510"
                  }
                ]
              }
            ]
          }
        ],
        "extension": [
          {
            "id": "effective-data-requirements",
            "url": "http://hl7.org/fhir/us/cqfmeasures/StructureDefinition/cqfm-effectiveDataRequirements",
            "valueReference": {
              "reference": "#effective-data-requirements"
            }
          },
          {
            "url": "http://hl7.org/fhir/us/cqfmeasures/StructureDefinition/cqfm-softwaresystem",
            "valueReference": {
              "reference": "Device/cqf-tooling"
            }
          }
        ],
        "url": "https://madie.cms.gov/Measure/BreastCancerScreeningFHIR",
        "identifier": [
          {
            "use": "usual",
            "type": {
              "coding": [
                {
                  "system": "http://hl7.org/fhir/us/cqfmeasures/CodeSystem/identifier-type",
                  "code": "short-name"
                }
              ]
            },
            "system": "https://madie.cms.gov/measure/shortName",
            "value": "CMS125FHIR"
          },
          {
            "use": "official",
            "type": {
              "coding": [
                {
                  "system": "http://hl7.org/fhir/us/cqfmeasures/CodeSystem/identifier-type",
                  "code": "version-independent"
                }
              ]
            },
            "system": "urn:ietf:rfc:3986",
            "value": "urn:uuid:f766afa2-f780-45d2-b224-c1bdb733fa6f"
          },
          {
            "use": "official",
            "type": {
              "coding": [
                {
                  "system": "http://hl7.org/fhir/us/cqfmeasures/CodeSystem/identifier-type",
                  "code": "version-specific"
                }
              ]
            },
            "system": "urn:ietf:rfc:3986",
            "value": "urn:uuid:7c89bd23-97eb-446b-b63a-975b63503b1c"
          },
          {
            "use": "official",
            "type": {
              "coding": [
                {
                  "system": "http://hl7.org/fhir/us/cqfmeasures/CodeSystem/identifier-type",
                  "code": "publisher"
                }
              ]
            },
            "system": "https://madie.cms.gov/measure/cmsId",
            "value": "125FHIR",
            "assigner": {
              "display": "CMS"
            }
          }
        ],
        "version": "0.0.001",
        "name": "BreastCancerScreeningFHIR",
        "title": "Breast Cancer ScreeningFHIR",
        "status": "active",
        "experimental": false,
        "date": "2024-07-09T14:53:55+00:00",
        "publisher": "National Committee for Quality Assurance",
        "contact": [
          {
            "telecom": [
              {
                "system": "url",
                "value": "https://www.ncqa.org/"
              }
            ]
          }
        ],
        "description": "Percentage of women 50-74 years of age who had a mammogram to screen for breast cancer in the 27 months prior to the end of the Measurement Period",
        "purpose": "UNKNOWN",
        "usage": "This measure evaluates primary screening. Do not count biopsies, breast ultrasounds, or MRIs because they are not appropriate methods for primary breast cancer screening.  Please note the measure may include screenings performed outside the age range of patients referenced in the initial population. Screenings that occur prior to the measurement period are valid to meet measure criteria.  This eCQM is a patient-based measure.  This FHIR-based measure has been derived from the QDM-based measure: CMS125v13.   Please refer to the HL7 QI-Core Implementation Guide (http://hl7.org/fhir/us/qicore/STU4.1.1/) for more information on QI-Core and mapping recommendations from QDM to QI-Core 4.1.1 (http://hl7.org/fhir/us/qicore/STU4.1.1/qdm-to-qicore.html).",
        "copyright": "This Physician Performance Measure (Measure) and related data specifications are owned and were developed by the National Committee for Quality Assurance (NCQA). NCQA is not responsible for any use of the Measure. NCQA makes no representations, warranties, or endorsement about the quality of any organization or physician that uses or reports performance measures and NCQA has no liability to anyone who relies on such measures or specifications. NCQA holds a copyright in the Measure. The Measure can be reproduced and distributed, without modification, for noncommercial purposes (e.g., use by healthcare providers in connection with their practices) without obtaining approval from NCQA. Commercial use is defined as the sale, licensing, or distribution of the Measure for commercial gain, or incorporation of the Measure into a product or service that is sold, licensed or distributed for commercial gain. All commercial uses or requests for modification must be approved by NCQA and are subject to a license at the discretion of NCQA. (C) 2012-2024 National Committee for Quality Assurance. All Rights Reserved.  Limited proprietary coding is contained in the Measure specifications for user convenience. Users of proprietary code sets should obtain all necessary licenses from the owners of the code sets. NCQA disclaims all liability for use or accuracy of any third-party codes contained in the specifications.  CPT(R) codes, descriptions and other data are copyright 2024. American Medical Association. All rights reserved. CPT is a trademark of the American Medical Association. Fee schedules, relative value units, conversion factors and/or related components are not assigned by the AMA, are not part of CPT, and the AMA is not recommending their use. The AMA does not directly or indirectly practice medicine or dispense medical services. The AMA assumes no liability for data contained or not contained herein. Applicable FARS/DFARS restrictions apply to government use.  Some measure specifications contain coding from LOINC(R) (http://loinc.org). The LOINC table, LOINC codes, LOINC panels and form file, LOINC linguistic variants file, LOINC/RSNA Radiology Playbook, and LOINC/IEEE Medical Device Code Mapping Table are copyright 2004-2024 Regenstrief Institute, Inc. and the Logical Observation Identifiers Names and Codes (LOINC) Committee, and are available at no cost under the license at http://loinc.org/terms-of-use.  This material contains SNOMED Clinical Terms(R) (SNOMED CT[R]) copyright 2004-2023 International Health Terminology Standards Development Organisation.  ICD-10 copyright 2024 World Health Organization. All Rights Reserved.  Some measures use RxNorm, a standardized nomenclature and coding for clinical drugs and drug delivery devices, which is made publicly available courtesy of the U.S. National Library of Medicine (NLM), National Institutes of Health, Department of Health and Human Services. NLM is not responsible for the measures and does not endorse or recommend this or any other product.  “HL7” is the registered trademark of Health Level Seven International.",
        "effectivePeriod": {
          "start": "2025-01-01",
          "end": "2025-12-31"
        },
        "author": [
          {
            "name": "National Committee for Quality Assurance",
            "telecom": [
              {
                "system": "url",
                "value": "https://www.ncqa.org/"
              }
            ]
          }
        ],
        "library": ["https://madie.cms.gov/Library/BreastCancerScreeningFHIR"],
        "disclaimer": "The performance Measure is not a clinical guideline and does not establish a standard of medical care, and has not been tested for all potential applications. THE MEASURE AND SPECIFICATIONS ARE PROVIDED \"AS IS\" WITHOUT WARRANTY OF ANY KIND.   Due to technical limitations, registered trademarks are indicated by (R) or [R] and unregistered trademarks are indicated by (TM) or [TM].",
        "rationale": "Breast cancer is one of the most common types of cancers, accounting for 15 percent of all new cancer diagnoses in the U.S. (Noone et al., 2018). In 2015, over 3 million women were estimated to be living with breast cancer in the U.S. and it is estimated that 12 percent of women will be diagnosed with breast cancer at some point during their lifetime (Noone et al., 2018).   While there are other factors that affect a woman's risk of developing breast cancer, advancing age is a primary risk factor. Breast cancer is most frequently diagnosed among women ages 55-64; the median age at diagnosis is 62 years (Noone et al., 2018).  The chance of a woman being diagnosed with breast cancer in a given year increases with age. By age 40, the chances are 1 in 68; by age 50 it becomes 1 in 43; by age 60, it is 1 in 29 (American Cancer Society, 2017).",
        "clinicalRecommendationStatement": "The U.S. Preventive Services Task Force (USPSTF) recommends biennial screening mammography for women aged 50-74 years (B recommendation) (USPSTF, 2016).  The decision to start screening mammography in women prior to age 50 years should be an individual one. Women who place a higher value on the potential benefit than the potential harms may choose to begin biennial screening between the ages of 40 and 49 years (C recommendation) (USPSTF, 2016).  The USPSTF concludes that the current evidence is insufficient to assess the balance of benefits and harms of screening mammography in women aged 75 years or older (I statement) (USPSTF, 2016).  The USPSTF concludes that the current evidence is insufficient to assess the benefits and harms of digital breast tomosynthesis (DBT) as a primary screening method for breast cancer (I statement) (USPSTF, 2016).   The USPSTF concludes that the current evidence is insufficient to assess the balance of benefits and harms of adjunctive screening for breast cancer using breast ultrasonography, magnetic resonance imaging, DBT, or other methods in women identified to have dense breasts on an otherwise negative screening mammogram (I statement) (USPSTF, 2016).  The National Comprehensive Cancer Network (NCCN) and the American College of Radiology (ACR) recommend using conventional mammography or DBT for screening women at low, intermediate or high risk for breast cancer (NCCN, 2021) (ACR, 2017).",
        "group": [
          {
            "id": "64e646302ad653247b573ada",
            "extension": [
              {
                "url": "http://hl7.org/fhir/us/cqfmeasures/StructureDefinition/cqfm-scoring",
                "valueCodeableConcept": {
                  "coding": [
                    {
                      "system": "http://terminology.hl7.org/CodeSystem/measure-scoring",
                      "code": "proportion",
                      "display": "Proportion"
                    }
                  ]
                }
              },
              {
                "url": "http://hl7.org/fhir/us/cqfmeasures/StructureDefinition/cqfm-populationBasis",
                "valueCode": "boolean"
              },
              {
                "url": "http://hl7.org/fhir/us/cqfmeasures/StructureDefinition/cqfm-type",
                "valueCodeableConcept": {
                  "coding": [
                    {
                      "system": "http://terminology.hl7.org/CodeSystem/measure-type",
                      "code": "process",
                      "display": "Process"
                    }
                  ]
                }
              },
              {
                "url": "http://hl7.org/fhir/us/cqfmeasures/StructureDefinition/cqfm-rateAggregation",
                "valueCode": "None"
              },
              {
                "url": "http://hl7.org/fhir/us/cqfmeasures/StructureDefinition/cqfm-improvementNotation",
                "valueCodeableConcept": {
                  "coding": [
                    {
                      "system": "http://terminology.hl7.org/CodeSystem/measure-improvement-notation",
                      "code": "decrease",
                      "display": "increase"
                    }
                  ]
                }
              }
            ],
            "population": [
              {
                "id": "FC061B94-3EB0-46E6-AD30-370E47E648AD",
                "code": {
                  "coding": [
                    {
                      "system": "http://terminology.hl7.org/CodeSystem/measure-population",
                      "code": "initial-population",
                      "display": "Initial Population"
                    }
                  ]
                },
                "description": "Women 52-74 years of age by the end of the measurement period with a visit during the measurement period",
                "criteria": {
                  "language": "text/cql-identifier",
                  "expression": "Initial Population"
                }
              },
              {
                "id": "054B4403-E6CF-4F3C-B36B-12003F3BA268",
                "code": {
                  "coding": [
                    {
                      "system": "http://terminology.hl7.org/CodeSystem/measure-population",
                      "code": "denominator",
                      "display": "Denominator"
                    }
                  ]
                },
                "description": "Equals Initial Population",
                "criteria": {
                  "language": "text/cql-identifier",
                  "expression": "Denominator"
                }
              },
              {
                "id": "209265B9-B25B-4809-BB65-DFD42207CB9D",
                "code": {
                  "coding": [
                    {
                      "system": "http://terminology.hl7.org/CodeSystem/measure-population",
                      "code": "denominator-exclusion",
                      "display": "Denominator Exclusion"
                    }
                  ]
                },
                "description": "Exclude patients who are in hospice care for any part of the measurement period.  Women who had a bilateral mastectomy or who have a history of a bilateral mastectomy or for whom there is evidence of a right and a left unilateral mastectomy on or before the end of the measurement period.  Exclude patients 66 and older by the end of the measurement period with an indication of frailty for any part of the measurement period who also meet any of the following advanced illness criteria: - Advanced illness diagnosis during the measurement period or the year prior - OR taking dementia medications during the measurement period or the year prior  Exclude patients 66 and older by the end of the measurement period who are living long term in a nursing home any time on or before the end of the measurement period.  Exclude patients receiving palliative care for any part of the measurement period.",
                "criteria": {
                  "language": "text/cql-identifier",
                  "expression": "Denominator Exclusions"
                }
              },
              {
                "id": "B7745FD9-0697-40A0-A179-3056DD614C8F",
                "code": {
                  "coding": [
                    {
                      "system": "http://terminology.hl7.org/CodeSystem/measure-population",
                      "code": "numerator",
                      "display": "Numerator"
                    }
                  ]
                },
                "description": "Women with one or more mammograms any time on or between October 1 two years prior to the measurement period and the end of the measurement period",
                "criteria": {
                  "language": "text/cql-identifier",
                  "expression": "Numerator"
                }
              }
            ]
          }
        ]
      },
      "request": {
        "method": "PUT",
        "url": "Measure/BreastCancerScreeningFHIR"
      }
    },
    {
      "fullUrl": "https://madie.cms.gov/Library/BreastCancerScreeningFHIR|0.0.001",
      "resource": {
        "resourceType": "Library",
        "id": "BreastCancerScreeningFHIR",
        "meta": {
          "profile": [
            "http://hl7.org/fhir/us/cqfmeasures/StructureDefinition/computable-library-cqfm"
          ]
        },
        "language": "en",
        "contained": [
          {
            "resourceType": "Parameters",
            "id": "options",
            "parameter": [
              {
                "name": "translatorVersion",
                "valueString": "3.10.0"
              },
              {
                "name": "option",
                "valueString": "EnableAnnotations"
              },
              {
                "name": "option",
                "valueString": "EnableLocators"
              },
              {
                "name": "option",
                "valueString": "DisableListDemotion"
              },
              {
                "name": "option",
                "valueString": "DisableListPromotion"
              },
              {
                "name": "format",
                "valueString": "XML"
              },
              {
                "name": "format",
                "valueString": "JSON"
              },
              {
                "name": "analyzeDataRequirements",
                "valueBoolean": true
              },
              {
                "name": "collapseDataRequirements",
                "valueBoolean": true
              },
              {
                "name": "compatibilityLevel",
                "valueString": "1.5"
              },
              {
                "name": "enableCqlOnly",
                "valueBoolean": false
              },
              {
                "name": "errorLevel",
                "valueString": "Info"
              },
              {
                "name": "signatureLevel",
                "valueString": "None"
              },
              {
                "name": "validateUnits",
                "valueBoolean": true
              },
              {
                "name": "verifyOnly",
                "valueBoolean": false
              }
            ]
          }
        ],
        "extension": [
          {
            "url": "http://hl7.org/fhir/us/cqfmeasures/StructureDefinition/cqfm-directReferenceCode",
            "valueCoding": {
              "system": "http://terminology.hl7.org/CodeSystem/v3-AdministrativeGender",
              "code": "F",
              "display": "Female"
            }
          },
          {
            "url": "http://hl7.org/fhir/us/cqfmeasures/StructureDefinition/cqfm-directReferenceCode",
            "valueCoding": {
              "system": "http://snomed.info/sct",
              "code": "7771000",
              "display": "Left (qualifier value)"
            }
          },
          {
            "url": "http://hl7.org/fhir/us/cqfmeasures/StructureDefinition/cqfm-directReferenceCode",
            "valueCoding": {
              "system": "http://snomed.info/sct",
              "code": "24028007",
              "display": "Right (qualifier value)"
            }
          },
          {
            "url": "http://hl7.org/fhir/StructureDefinition/cqf-cqlOptions",
            "valueReference": {
              "reference": "#options"
            }
          },
          {
            "url": "http://hl7.org/fhir/us/cqfmeasures/StructureDefinition/cqfm-softwaresystem",
            "valueReference": {
              "reference": "Device/cqf-tooling"
            }
          }
        ],
        "url": "https://madie.cms.gov/Library/BreastCancerScreeningFHIR",
        "identifier": [
          {
            "use": "official",
            "system": "https://madie.cms.gov/login",
            "value": "BreastCancerScreeningFHIR"
          }
        ],
        "version": "0.0.001",
        "name": "BreastCancerScreeningFHIR",
        "title": "BreastCancerScreeningFHIR",
        "status": "active",
        "experimental": false,
        "type": {
          "coding": [
            {
              "system": "http://terminology.hl7.org/CodeSystem/library-type",
              "code": "logic-library"
            }
          ]
        },
        "date": "2024-05-16T15:11:55+00:00",
        "description": "BreastCancerScreeningFHIR",
        "relatedArtifact": [
          {
            "type": "depends-on",
            "display": "QICore model information",
            "resource": "http://hl7.org/fhir/Library/QICore-ModelInfo"
          },
          {
            "type": "depends-on",
            "display": "Library FHIRHelpers",
            "resource": "http://ecqi.healthit.gov/ecqms/Library/FHIRHelpers|4.4.000"
          },
          {
            "type": "depends-on",
            "display": "Library SDE",
            "resource": "http://ecqi.healthit.gov/ecqms/Library/SupplementalDataElements|3.5.000"
          },
          {
            "type": "depends-on",
            "display": "Library QICoreCommon",
            "resource": "http://ecqi.healthit.gov/ecqms/Library/QICoreCommon|2.1.000"
          },
          {
            "type": "depends-on",
            "display": "Library PalliativeCare",
            "resource": "http://ecqi.healthit.gov/ecqms/Library/PalliativeCare|1.11.000"
          },
          {
            "type": "depends-on",
            "display": "Code system AdministrativeGender",
            "resource": "http://terminology.hl7.org/CodeSystem/v3-AdministrativeGender"
          },
          {
            "type": "depends-on",
            "display": "Code system SNOMEDCT",
            "resource": "http://snomed.info/sct"
          },
          {
            "type": "depends-on",
            "display": "Code system LOINC",
            "resource": "http://loinc.org"
          },
          {
            "type": "depends-on",
            "display": "Code system ObservationCategoryCodes",
            "resource": "http://terminology.hl7.org/CodeSystem/observation-category"
          },
          {
            "type": "depends-on",
            "display": "Value set Status Post Left Mastectomy",
            "resource": "http://cts.nlm.nih.gov/fhir/ValueSet/2.16.840.1.113883.3.464.1003.198.12.1069"
          },
          {
            "type": "depends-on",
            "display": "Value set Status Post Right Mastectomy",
            "resource": "http://cts.nlm.nih.gov/fhir/ValueSet/2.16.840.1.113883.3.464.1003.198.12.1070"
          },
          {
            "type": "depends-on",
            "display": "Value set Unilateral Mastectomy Left",
            "resource": "http://cts.nlm.nih.gov/fhir/ValueSet/2.16.840.1.113883.3.464.1003.198.12.1133"
          },
          {
            "type": "depends-on",
            "display": "Value set Unilateral Mastectomy Right",
            "resource": "http://cts.nlm.nih.gov/fhir/ValueSet/2.16.840.1.113883.3.464.1003.198.12.1134"
          },
          {
            "type": "depends-on",
            "display": "Value set Unilateral Mastectomy, Unspecified Laterality",
            "resource": "http://cts.nlm.nih.gov/fhir/ValueSet/2.16.840.1.113883.3.464.1003.198.12.1071"
          },
          {
            "type": "depends-on",
            "display": "Value set Payer Type",
            "resource": "http://cts.nlm.nih.gov/fhir/ValueSet/2.16.840.1.114222.4.11.3591"
          }
        ],
        "parameter": [
          {
            "name": "Measurement Period",
            "use": "in",
            "min": 0,
            "max": "1",
            "type": "Period"
          },
          {
            "name": "ErrorLevel",
            "use": "in",
            "min": 0,
            "max": "1",
            "type": "string"
          },
          {
            "name": "Patient",
            "use": "out",
            "min": 0,
            "max": "1",
            "type": "Resource"
          },
          {
            "name": "Initial Population",
            "use": "out",
            "min": 0,
            "max": "1",
            "type": "boolean"
          },
          {
            "name": "Denominator",
            "use": "out",
            "min": 0,
            "max": "1",
            "type": "boolean"
          },
          {
            "name": "Right Mastectomy Diagnosis",
            "use": "out",
            "min": 0,
            "max": "*",
            "type": "Resource"
          },
          {
            "name": "Right Mastectomy Procedure",
            "use": "out",
            "min": 0,
            "max": "*",
            "type": "Resource"
          },
          {
            "name": "Left Mastectomy Diagnosis",
            "use": "out",
            "min": 0,
            "max": "*",
            "type": "Resource"
          },
          {
            "name": "Left Mastectomy Procedure",
            "use": "out",
            "min": 0,
            "max": "*",
            "type": "Resource"
          },
          {
            "name": "Bilateral Mastectomy Diagnosis",
            "use": "out",
            "min": 0,
            "max": "*",
            "type": "Resource"
          },
          {
            "name": "Bilateral Mastectomy Procedure",
            "use": "out",
            "min": 0,
            "max": "*",
            "type": "Resource"
          },
          {
            "name": "Denominator Exclusions",
            "use": "out",
            "min": 0,
            "max": "1",
            "type": "boolean"
          },
          {
            "name": "October 1 Two Years Prior to the Measurement Period",
            "use": "out",
            "min": 0,
            "max": "1",
            "type": "dateTime"
          },
          {
            "name": "Numerator",
            "use": "out",
            "min": 0,
            "max": "1",
            "type": "boolean"
          },
          {
            "name": "SDE Ethnicity",
            "use": "out",
            "min": 0,
            "max": "1",
            "type": "Resource"
          },
          {
            "name": "SDE Payer",
            "use": "out",
            "min": 0,
            "max": "*",
            "type": "Resource"
          },
          {
            "name": "SDE Race",
            "use": "out",
            "min": 0,
            "max": "1",
            "type": "Resource"
          },
          {
            "name": "SDE Sex",
            "use": "out",
            "min": 0,
            "max": "1",
            "type": "Coding"
          }
        ],
        "dataRequirement": [
          {
            "type": "Patient",
            "profile": [
              "http://hl7.org/fhir/us/qicore/StructureDefinition/qicore-patient"
            ],
            "mustSupport": ["ethnicity", "race"]
          },
          {
            "type": "Encounter",
            "profile": [
              "http://hl7.org/fhir/us/qicore/StructureDefinition/qicore-encounter"
            ],
            "mustSupport": ["type", "status", "status.value", "period"],
            "codeFilter": [
              {
                "path": "type",
                "valueSet": "http://cts.nlm.nih.gov/fhir/ValueSet/2.16.840.1.113883.3.464.1003.101.12.1001"
              }
            ]
          },
          {
            "type": "Encounter",
            "profile": [
              "http://hl7.org/fhir/us/qicore/StructureDefinition/qicore-encounter"
            ],
            "mustSupport": ["type", "status", "status.value", "period"],
            "codeFilter": [
              {
                "path": "type",
                "valueSet": "http://cts.nlm.nih.gov/fhir/ValueSet/2.16.840.1.113883.3.526.3.1240"
              }
            ]
          },
          {
            "type": "Encounter",
            "profile": [
              "http://hl7.org/fhir/us/qicore/StructureDefinition/qicore-encounter"
            ],
            "mustSupport": ["type", "status", "status.value", "period"],
            "codeFilter": [
              {
                "path": "type",
                "valueSet": "http://cts.nlm.nih.gov/fhir/ValueSet/2.16.840.1.113883.3.464.1003.101.12.1025"
              }
            ]
          },
          {
            "type": "Encounter",
            "profile": [
              "http://hl7.org/fhir/us/qicore/StructureDefinition/qicore-encounter"
            ],
            "mustSupport": ["type", "status", "status.value", "period"],
            "codeFilter": [
              {
                "path": "type",
                "valueSet": "http://cts.nlm.nih.gov/fhir/ValueSet/2.16.840.1.113883.3.464.1003.101.12.1023"
              }
            ]
          },
          {
            "type": "Encounter",
            "profile": [
              "http://hl7.org/fhir/us/qicore/StructureDefinition/qicore-encounter"
            ],
            "mustSupport": ["type", "status", "status.value", "period"],
            "codeFilter": [
              {
                "path": "type",
                "valueSet": "http://cts.nlm.nih.gov/fhir/ValueSet/2.16.840.1.113883.3.464.1003.101.12.1016"
              }
            ]
          },
          {
            "type": "Encounter",
            "profile": [
              "http://hl7.org/fhir/us/qicore/StructureDefinition/qicore-encounter"
            ],
            "mustSupport": ["type", "status", "status.value", "period"],
            "codeFilter": [
              {
                "path": "type",
                "valueSet": "http://cts.nlm.nih.gov/fhir/ValueSet/2.16.840.1.113883.3.464.1003.101.12.1089"
              }
            ]
          },
          {
            "type": "Encounter",
            "profile": [
              "http://hl7.org/fhir/us/qicore/StructureDefinition/qicore-encounter"
            ],
            "mustSupport": ["type", "status", "status.value", "period"],
            "codeFilter": [
              {
                "path": "type",
                "valueSet": "http://cts.nlm.nih.gov/fhir/ValueSet/2.16.840.1.113883.3.464.1003.101.12.1080"
              }
            ]
          },
          {
            "type": "Encounter",
            "profile": [
              "http://hl7.org/fhir/us/qicore/StructureDefinition/qicore-encounter"
            ],
            "mustSupport": [
              "type",
              "hospitalization",
              "hospitalization.dischargeDisposition",
              "period",
              "status",
              "status.value"
            ],
            "codeFilter": [
              {
                "path": "type",
                "valueSet": "http://cts.nlm.nih.gov/fhir/ValueSet/2.16.840.1.113883.3.666.5.307"
              }
            ]
          },
          {
            "type": "Encounter",
            "profile": [
              "http://hl7.org/fhir/us/qicore/StructureDefinition/qicore-encounter"
            ],
            "mustSupport": ["type", "period", "status", "status.value"],
            "codeFilter": [
              {
                "path": "type",
                "valueSet": "http://cts.nlm.nih.gov/fhir/ValueSet/2.16.840.1.113883.3.464.1003.1003"
              }
            ]
          },
          {
            "type": "Encounter",
            "profile": [
              "http://hl7.org/fhir/us/qicore/StructureDefinition/qicore-encounter"
            ],
            "mustSupport": ["type", "period", "status", "status.value"],
            "codeFilter": [
              {
                "path": "type",
                "valueSet": "http://cts.nlm.nih.gov/fhir/ValueSet/2.16.840.1.113883.3.464.1003.101.12.1088"
              }
            ]
          },
          {
            "type": "Encounter",
            "profile": [
              "http://hl7.org/fhir/us/qicore/StructureDefinition/qicore-encounter"
            ],
            "mustSupport": ["type", "period", "status", "status.value"],
            "codeFilter": [
              {
                "path": "type",
                "valueSet": "http://cts.nlm.nih.gov/fhir/ValueSet/2.16.840.1.113883.3.464.1003.101.12.1090"
              }
            ]
          },
          {
            "type": "Condition",
            "profile": [
              "http://hl7.org/fhir/us/qicore/StructureDefinition/qicore-condition"
            ],
            "mustSupport": ["code"],
            "codeFilter": [
              {
                "path": "code",
                "valueSet": "http://cts.nlm.nih.gov/fhir/ValueSet/2.16.840.1.113883.3.464.1003.198.12.1070"
              }
            ]
          },
          {
            "type": "Condition",
            "profile": [
              "http://hl7.org/fhir/us/qicore/StructureDefinition/qicore-condition"
            ],
            "mustSupport": ["code", "bodySite"],
            "codeFilter": [
              {
                "path": "code",
                "valueSet": "http://cts.nlm.nih.gov/fhir/ValueSet/2.16.840.1.113883.3.464.1003.198.12.1071"
              }
            ]
          },
          {
            "type": "Condition",
            "profile": [
              "http://hl7.org/fhir/us/qicore/StructureDefinition/qicore-condition"
            ],
            "mustSupport": ["code"],
            "codeFilter": [
              {
                "path": "code",
                "valueSet": "http://cts.nlm.nih.gov/fhir/ValueSet/2.16.840.1.113883.3.464.1003.198.12.1069"
              }
            ]
          },
          {
            "type": "Condition",
            "profile": [
              "http://hl7.org/fhir/us/qicore/StructureDefinition/qicore-condition"
            ],
            "mustSupport": ["code"],
            "codeFilter": [
              {
                "path": "code",
                "valueSet": "http://cts.nlm.nih.gov/fhir/ValueSet/2.16.840.1.113883.3.464.1003.198.12.1068"
              }
            ]
          },
          {
            "type": "Condition",
            "profile": [
              "http://hl7.org/fhir/us/qicore/StructureDefinition/qicore-condition"
            ],
            "mustSupport": ["code"],
            "codeFilter": [
              {
                "path": "code",
                "valueSet": "http://cts.nlm.nih.gov/fhir/ValueSet/2.16.840.1.113883.3.464.1003.1165"
              }
            ]
          },
          {
            "type": "Condition",
            "profile": [
              "http://hl7.org/fhir/us/qicore/StructureDefinition/qicore-condition"
            ],
            "mustSupport": ["code"],
            "codeFilter": [
              {
                "path": "code",
                "valueSet": "http://cts.nlm.nih.gov/fhir/ValueSet/2.16.840.1.113883.3.464.1003.113.12.1074"
              }
            ]
          },
          {
            "type": "Condition",
            "profile": [
              "http://hl7.org/fhir/us/qicore/StructureDefinition/qicore-condition"
            ],
            "mustSupport": ["code"],
            "codeFilter": [
              {
                "path": "code",
                "valueSet": "http://cts.nlm.nih.gov/fhir/ValueSet/2.16.840.1.113883.3.464.1003.110.12.1082"
              }
            ]
          },
          {
            "type": "Condition",
            "profile": [
              "http://hl7.org/fhir/us/qicore/StructureDefinition/qicore-condition"
            ],
            "mustSupport": ["code"],
            "codeFilter": [
              {
                "path": "code",
                "valueSet": "http://cts.nlm.nih.gov/fhir/ValueSet/2.16.840.1.113883.3.464.1003.1167"
              }
            ]
          },
          {
            "type": "Procedure",
            "profile": [
              "http://hl7.org/fhir/us/qicore/StructureDefinition/qicore-procedure"
            ],
            "mustSupport": ["code", "performed", "status", "status.value"],
            "codeFilter": [
              {
                "path": "code",
                "valueSet": "http://cts.nlm.nih.gov/fhir/ValueSet/2.16.840.1.113883.3.464.1003.198.12.1134"
              }
            ],
            "dateFilter": [
              {
                "path": "performed"
              }
            ]
          },
          {
            "type": "Procedure",
            "profile": [
              "http://hl7.org/fhir/us/qicore/StructureDefinition/qicore-procedure"
            ],
            "mustSupport": ["code", "performed", "status", "status.value"],
            "codeFilter": [
              {
                "path": "code",
                "valueSet": "http://cts.nlm.nih.gov/fhir/ValueSet/2.16.840.1.113883.3.464.1003.198.12.1133"
              }
            ],
            "dateFilter": [
              {
                "path": "performed"
              }
            ]
          },
          {
            "type": "Procedure",
            "profile": [
              "http://hl7.org/fhir/us/qicore/StructureDefinition/qicore-procedure"
            ],
            "mustSupport": ["code", "performed", "status", "status.value"],
            "codeFilter": [
              {
                "path": "code",
                "valueSet": "http://cts.nlm.nih.gov/fhir/ValueSet/2.16.840.1.113883.3.464.1003.198.12.1005"
              }
            ],
            "dateFilter": [
              {
                "path": "performed"
              }
            ]
          },
          {
            "type": "Procedure",
            "profile": [
              "http://hl7.org/fhir/us/qicore/StructureDefinition/qicore-procedure"
            ],
            "mustSupport": ["code", "performed", "status", "status.value"],
            "codeFilter": [
              {
                "path": "code",
                "valueSet": "http://cts.nlm.nih.gov/fhir/ValueSet/2.16.840.1.113883.3.526.3.1584"
              }
            ]
          },
          {
            "type": "Procedure",
            "profile": [
              "http://hl7.org/fhir/us/qicore/StructureDefinition/qicore-procedure"
            ],
            "mustSupport": ["code", "performed", "status", "status.value"],
            "codeFilter": [
              {
                "path": "code",
                "valueSet": "http://cts.nlm.nih.gov/fhir/ValueSet/2.16.840.1.113883.3.464.1003.198.12.1135"
              }
            ]
          },
          {
            "type": "Observation",
            "profile": [
              "http://hl7.org/fhir/us/qicore/StructureDefinition/qicore-observation"
            ],
            "mustSupport": [
              "code",
              "value",
              "effective",
              "status",
              "status.value",
              "category"
            ],
            "codeFilter": [
              {
                "path": "code",
                "code": [
                  {
                    "system": "http://loinc.org",
                    "code": "45755-6",
                    "display": "Hospice care [Minimum Data Set]"
                  }
                ]
              },
              {
                "path": "value"
              }
            ]
          },
          {
            "type": "Observation",
            "profile": [
              "http://hl7.org/fhir/us/qicore/StructureDefinition/qicore-observation"
            ],
            "mustSupport": [
              "code",
              "value",
              "effective",
              "status",
              "status.value",
              "category"
            ],
            "codeFilter": [
              {
                "path": "code",
                "code": [
                  {
                    "system": "http://loinc.org",
                    "code": "98181-1",
                    "display": "Medical equipment used"
                  }
                ]
              },
              {
                "path": "value",
                "valueSet": "http://cts.nlm.nih.gov/fhir/ValueSet/2.16.840.1.113883.3.464.1003.118.12.1300"
              }
            ],
            "dateFilter": [
              {
                "path": "effective",
                "valuePeriod": {
                  "extension": [
                    {
                      "url": "http://hl7.org/fhir/StructureDefinition/cqf-expression",
                      "valueExpression": {
                        "language": "text/cql-identifier",
                        "expression": "Measurement Period"
                      }
                    }
                  ]
                }
              }
            ]
          },
          {
            "type": "Observation",
            "profile": [
              "http://hl7.org/fhir/us/qicore/StructureDefinition/qicore-observation"
            ],
            "mustSupport": [
              "code",
              "effective",
              "status",
              "status.value",
              "category"
            ],
            "codeFilter": [
              {
                "path": "code",
                "valueSet": "http://cts.nlm.nih.gov/fhir/ValueSet/2.16.840.1.113883.3.464.1003.113.12.1075"
              }
            ]
          },
          {
            "type": "Observation",
            "profile": [
              "http://hl7.org/fhir/us/qicore/StructureDefinition/qicore-observation"
            ],
            "mustSupport": [
              "code",
              "effective",
              "status",
              "status.value",
              "category"
            ],
            "codeFilter": [
              {
                "path": "code",
                "code": [
                  {
                    "system": "http://loinc.org",
                    "code": "71802-3",
                    "display": "Housing status"
                  }
                ]
              }
            ],
            "dateFilter": [
              {
                "path": "effective"
              }
            ]
          },
          {
            "type": "Observation",
            "profile": [
              "http://hl7.org/fhir/us/qicore/StructureDefinition/qicore-observation"
            ],
            "mustSupport": [
              "code",
              "effective",
              "value",
              "status",
              "status.value",
              "category"
            ],
            "codeFilter": [
              {
                "path": "code",
                "code": [
                  {
                    "system": "http://loinc.org",
                    "code": "71802-3",
                    "display": "Housing status"
                  }
                ]
              },
              {
                "path": "value"
              }
            ],
            "dateFilter": [
              {
                "path": "effective"
              }
            ]
          },
          {
            "type": "Observation",
            "profile": [
              "http://hl7.org/fhir/us/qicore/StructureDefinition/qicore-observation"
            ],
            "mustSupport": [
              "code",
              "effective",
              "status",
              "status.value",
              "category"
            ],
            "codeFilter": [
              {
                "path": "code",
                "code": [
                  {
                    "system": "http://loinc.org",
                    "code": "71007-9",
                    "display": "Functional Assessment of Chronic Illness Therapy - Palliative Care Questionnaire (FACIT-Pal)"
                  }
                ]
              }
            ]
          },
          {
            "type": "Observation",
            "profile": [
              "http://hl7.org/fhir/us/qicore/StructureDefinition/qicore-observation"
            ],
            "mustSupport": [
              "code",
              "effective",
              "status",
              "status.value",
              "category"
            ],
            "codeFilter": [
              {
                "path": "code",
                "valueSet": "http://cts.nlm.nih.gov/fhir/ValueSet/2.16.840.1.113883.3.464.1003.108.12.1018"
              }
            ]
          },
          {
            "type": "ServiceRequest",
            "profile": [
              "http://hl7.org/fhir/us/qicore/StructureDefinition/qicore-servicerequest"
            ],
            "mustSupport": [
              "code",
              "authoredOn",
              "authoredOn.value",
              "status",
              "status.value",
              "intent",
              "intent.value"
            ],
            "codeFilter": [
              {
                "path": "code",
                "valueSet": "http://cts.nlm.nih.gov/fhir/ValueSet/2.16.840.1.113883.3.526.3.1584"
              }
            ]
          },
          {
            "type": "DeviceRequest",
            "profile": [
              "http://hl7.org/fhir/us/qicore/StructureDefinition/qicore-devicerequest"
            ],
            "mustSupport": [
              "code",
              "status",
              "status.value",
              "intent",
              "intent.value",
              "url",
              "url.value",
              "value",
              "authoredOn",
              "authoredOn.value"
            ],
            "codeFilter": [
              {
                "path": "code",
                "valueSet": "http://cts.nlm.nih.gov/fhir/ValueSet/2.16.840.1.113883.3.464.1003.118.12.1300"
              }
            ]
          },
          {
            "type": "MedicationRequest",
            "profile": [
              "http://hl7.org/fhir/us/qicore/StructureDefinition/qicore-medicationrequest"
            ],
            "mustSupport": [
              "medication",
              "status",
              "status.value",
              "intent",
              "intent.value",
              "dosageInstruction",
              "dispenseRequest",
              "dispenseRequest.expectedSupplyDuration",
              "dispenseRequest.quantity",
              "dispenseRequest.numberOfRepeatsAllowed",
              "dispenseRequest.numberOfRepeatsAllowed.value",
              "authoredOn",
              "authoredOn.value",
              "dispenseRequest.validityPeriod"
            ],
            "codeFilter": [
              {
                "path": "medication",
                "valueSet": "http://cts.nlm.nih.gov/fhir/ValueSet/2.16.840.1.113883.3.464.1003.196.12.1510"
              }
            ]
          },
          {
            "type": "Coverage",
            "profile": [
              "http://hl7.org/fhir/us/qicore/StructureDefinition/qicore-coverage"
            ],
            "mustSupport": ["type", "period"],
            "codeFilter": [
              {
                "path": "type",
                "valueSet": "http://cts.nlm.nih.gov/fhir/ValueSet/2.16.840.1.114222.4.11.3591"
              }
            ]
          }
        ],
        "content": [
          {
            "contentType": "text/cql",
            "data": ""
          },
          {
            "contentType": "application/elm+xml",
            "data": ""
          },
          {
            "contentType": "application/elm+json",
            "data": ""
          }
        ]
      },
      "request": {
        "method": "PUT",
        "url": "Measure/BreastCancerScreeningFHIR"
      }
    }
  ]
}
