{
  "resourceType": "MeasureReport",
  "id": "AggregateReport-subject-list2",
  "text": {
    "status": "generated",
    "div": "<div xmlns=\"http://www.w3.org/1999/xhtml\"></div>"
  },
  "contained": [
    {
      "resourceType": "List",
      "id": "CMS146-initial-population",
      "entry": [
        {
          "item": {
            "reference": "Patient/denom-EXM74-strat1-case2"
          }
        },
        {
          "item": {
            "reference": "Patient/denom-EXM74-strat1-case3"
          }
        }
      ]
    },
    {
      "resourceType": "Organization",
      "id": "reporter",
      "name": "Good Health Hospital"
    }
  ],
  "identifier": [
    {
      "value": "measurereport-cms146-cat2-example-2017-03-13"
    }
  ],
  "status": "complete",
  "type": "patient-list",
  "measure": "Measure/CMS146",
  "reporter": {
    "reference": "#reporter"
  },
  "period": {
    "start": "2014-01-01",
    "end": "2014-03-31"
  },
  "group": [
    {
      "id": "CMS146-group-1",
      "population": [
        {
          "code": {
            "coding": [
              {
                "code": "initial-population"
              }
            ]
          },
          "count": 500,
          "patients": {
            "reference": "List/CMS146-initial-population"
          }
        },
        {
          "code": {
            "coding": [
              {
                "code": "numerator"
              }
            ]
          },
          "count": 200,
          "patients": {
            "reference": "List/CMS146-numerator"
          }
        },
        {
          "code": {
            "coding": [
              {
                "code": "denominator"
              }
            ]
          },
          "count": 500,
          "patients": {
            "reference": "List/CMS146-denominator"
          }
        },
        {
          "code": {
            "coding": [
              {
                "code": "denominator-exclusion"
              }
            ]
          },
          "count": 100,
          "patients": {
            "reference": "List/CMS146-denominator-exclusions"
          }
        }
      ],
      "stratifier": [
        {
          "identifier": {
            "value": "stratifier-ages-up-to-9"
          },
          "stratum": [
            {
              "value": "true",
              "population": [
                {
                  "code": {
                    "coding": [
                      {
                        "code": "initial-population"
                      }
                    ]
                  },
                  "count": 250,
                  "patients": {
                    "reference": "List/CMS146-stratifier-ages-up-to-9-true-initial-population"
                  }
                },
                {
                  "code": {
                    "coding": [
                      {
                        "code": "numerator"
                      }
                    ]
                  },
                  "count": 100,
                  "patients": {
                    "reference": "List/CMS146-stratifier-ages-up-to-9-true-numerator"
                  }
                },
                {
                  "code": {
                    "coding": [
                      {
                        "code": "denominator"
                      }
                    ]
                  },
                  "count": 250,
                  "patients": {
                    "reference": "List/CMS146-stratifier-ages-up-to-9-true-denominator"
                  }
                },
                {
                  "code": {
                    "coding": [
                      {
                        "code": "denominator-exclusion"
                      }
                    ]
                  },
                  "count": 50,
                  "patients": {
                    "reference": "List/CMS146-stratifier-ages-up-to-9-true-denominator-exclusions"
                  }
                }
              ]
            },
            {
              "value": "false",
              "population": [
                {
                  "code": {
                    "coding": [
                      {
                        "code": "initial-population"
                      }
                    ]
                  },
                  "count": 250,
                  "patients": {
                    "reference": "List/CMS146-stratifier-ages-up-to-9-false-initial-population"
                  }
                },
                {
                  "code": {
                    "coding": [
                      {
                        "code": "numerator"
                      }
                    ]
                  },
                  "count": 100,
                  "patients": {
                    "reference": "List/CMS146-stratifier-ages-up-to-9-false-numerator"
                  }
                },
                {
                  "code": {
                    "coding": [
                      {
                        "code": "denominator"
                      }
                    ]
                  },
                  "count": 250,
                  "patients": {
                    "reference": "List/CMS146-stratifier-ages-up-to-9-false-denominator"
                  }
                },
                {
                  "code": {
                    "coding": [
                      {
                        "code": "denominator-exclusion"
                      }
                    ]
                  },
                  "count": 50,
                  "patients": {
                    "reference": "List/CMS146-stratifier-ages-up-to-9-false-denominator-exclusions"
                  }
                }
              ]
            }
          ]
        },
        {
          "identifier": {
            "value": "stratifier-ages-10-plus"
          },
          "stratum": [
            {
              "value": "true",
              "population": [
                {
                  "code": {
                    "coding": [
                      {
                        "code": "initial-population"
                      }
                    ]
                  },
                  "count": 250,
                  "patients": {
                    "reference": "List/CMS146-stratifier-ages-10-plus-true-initial-population"
                  }
                },
                {
                  "code": {
                    "coding": [
                      {
                        "code": "numerator"
                      }
                    ]
                  },
                  "count": 100,
                  "patients": {
                    "reference": "List/CMS146-stratifier-ages-10-plus-true-numerator"
                  }
                },
                {
                  "code": {
                    "coding": [
                      {
                        "code": "denominator"
                      }
                    ]
                  },
                  "count": 250,
                  "patients": {
                    "reference": "List/CMS146-stratifier-ages-10-plus-true-denominator"
                  }
                },
                {
                  "code": {
                    "coding": [
                      {
                        "code": "denominator-exclusion"
                      }
                    ]
                  },
                  "count": 50,
                  "patients": {
                    "reference": "List/CMS146-stratifier-ages-10-plus-true-denominator-exclusions"
                  }
                }
              ]
            },
            {
              "value": "false",
              "population": [
                {
                  "code": {
                    "coding": [
                      {
                        "code": "initial-population"
                      }
                    ]
                  },
                  "count": 250,
                  "patients": {
                    "reference": "List/CMS146-stratifier-ages-10-plus-false-initial-population"
                  }
                },
                {
                  "code": {
                    "coding": [
                      {
                        "code": "numerator"
                      }
                    ]
                  },
                  "count": 100,
                  "patients": {
                    "reference": "List/CMS146-stratifier-ages-10-plus-false-numerator"
                  }
                },
                {
                  "code": {
                    "coding": [
                      {
                        "code": "denominator"
                      }
                    ]
                  },
                  "count": 250,
                  "patients": {
                    "reference": "List/CMS146-stratifier-ages-10-plus-false-denominator"
                  }
                },
                {
                  "code": {
                    "coding": [
                      {
                        "code": "denominator-exclusion"
                      }
                    ]
                  },
                  "count": 50,
                  "patients": {
                    "reference": "List/CMS146-stratifier-ages-10-plus-false-denominator-exclusions"
                  }
                }
              ]
            }
          ]
        }
      ]
    }
  ]
}