{
  "resourceType": "MeasureReport",
  "contained": [
    {
      "resourceType": "Observation",
      "id": "sde-observation-sde-ethnicity-coding-2186-5",
      "extension": [
        {
          "url": "http://hl7.org/fhir/StructureDefinition/cqf-measureInfo",
          "extension": [
            {
              "url": "measure",
              "valueCanonical": "http://hl7.org/fhir/us/cqfmeasures/Measure/EXM108"
            },
            {
              "url": "populationId",
              "valueString": "sde-ethnicity"
            }
          ]
        }
      ],
      "status": "final",
      "code": {
        "coding": [
          {
            "code": "2186-5"
          }
        ]
      },
      "valueInteger": 1
    },
    {
      "resourceType": "Observation",
      "id": "sde-observation-sde-race-coding-2106-3",
      "extension": [
        {
          "url": "http://hl7.org/fhir/StructureDefinition/cqf-measureInfo",
          "extension": [
            {
              "url": "measure",
              "valueCanonical": "http://hl7.org/fhir/us/cqfmeasures/Measure/EXM108"
            },
            {
              "url": "populationId",
              "valueString": "sde-race"
            }
          ]
        }
      ],
      "status": "final",
      "code": {
        "coding": [
          {
            "code": "2106-3"
          }
        ]
      },
      "valueInteger": 1
    },
    {
      "resourceType": "Observation",
      "id": "sde-observation-sde-sex-code-f",
      "extension": [
        {
          "url": "http://hl7.org/fhir/StructureDefinition/cqf-measureInfo",
          "extension": [
            {
              "url": "measure",
              "valueCanonical": "http://hl7.org/fhir/us/cqfmeasures/Measure/EXM108"
            },
            {
              "url": "populationId",
              "valueString": "sde-sex"
            }
          ]
        }
      ],
      "status": "final",
      "code": {
        "coding": [
          {
            "code": "F"
          }
        ]
      },
      "valueInteger": 1
    },
    {
      "resourceType": "Observation",
      "id": "sde-observation-sde-sex-code-m",
      "extension": [
        {
          "url": "http://hl7.org/fhir/StructureDefinition/cqf-measureInfo",
          "extension": [
            {
              "url": "measure",
              "valueCanonical": "http://hl7.org/fhir/us/cqfmeasures/Measure/EXM108"
            },
            {
              "url": "populationId",
              "valueString": "sde-sex"
            }
          ]
        }
      ],
      "status": "final",
      "code": {
        "coding": [
          {
            "code": "M"
          }
        ]
      },
      "valueInteger": 1
    }
  ],
  "extension": [
    {
      "url": "http://hl7.org/fhir/5.0/StructureDefinition/extension-MeasureReport.population.description",
      "valueString": "This measure assesses the number of patients who received VTE prophylaxis or have documentation why no VTE prophylaxis was given the day of or the day after hospital admission or surgery end date for surgeries that start the day of or the day after hospital admission"
    },
    {
      "url": "http://hl7.org/fhir/5.0/StructureDefinition/extension-MeasureReport.supplementalDataElement.reference",
      "valueReference": {
        "reference": "#sde-observation-sde-ethnicity-coding-2186-5"
      }
    },
    {
      "url": "http://hl7.org/fhir/5.0/StructureDefinition/extension-MeasureReport.supplementalDataElement.reference",
      "valueReference": {
        "reference": "#sde-observation-sde-race-coding-2106-3"
      }
    },
    {
      "url": "http://hl7.org/fhir/5.0/StructureDefinition/extension-MeasureReport.supplementalDataElement.reference",
      "valueReference": {
        "reference": "#sde-observation-sde-sex-code-f"
      }
    },
    {
      "url": "http://hl7.org/fhir/5.0/StructureDefinition/extension-MeasureReport.supplementalDataElement.reference",
      "valueReference": {
        "reference": "#sde-observation-sde-sex-code-m"
      }
    }
  ],
  "status": "complete",
  "type": "summary",
  "measure": "http://hl7.org/fhir/us/cqfmeasures/Measure/EXM108",
  "date": "2021-10-18T21:47:36-06:00",
  "period": {
    "start": "2018-12-31T00:00:00-07:00",
    "end": "2019-12-31T23:59:59-07:00"
  },
  "group": [
    {
      "id": "group-1",
      "population": [
        {
          "code": {
            "coding": [
              {
                "system": "http://terminology.hl7.org/CodeSystem/measure-population",
                "code": "initial-population",
                "display": "Initial Population"
              }
            ]
          },
          "count": 2
        },
        {
          "code": {
            "coding": [
              {
                "system": "http://terminology.hl7.org/CodeSystem/measure-population",
                "code": "numerator",
                "display": "Numerator"
              }
            ]
          },
          "count": 1
        },
        {
          "code": {
            "coding": [
              {
                "system": "http://terminology.hl7.org/CodeSystem/measure-population",
                "code": "denominator",
                "display": "Denominator"
              }
            ]
          },
          "count": 2
        },
        {
          "code": {
            "coding": [
              {
                "system": "http://terminology.hl7.org/CodeSystem/measure-population",
                "code": "denominator-exclusion",
                "display": "Denominator Exclusion"
              }
            ]
          },
          "count": 0
        }
      ],
      "measureScore": {
        "value": 1.0
      }
    }
  ]
}