{
  "resourceType": "CarePlan",
  "id": "opioidcds-10-patient-view",
  "contained": [
    {
      "resourceType": "RequestGroup",
      "id": "opioidcds-10-patient-view",
      "instantiatesCanonical": [
        "http://fhir.org/guides/cdc/opioid-cds/PlanDefinition/opioidcds-10-patient-view"
      ],
      "status": "draft",
      "intent": "proposal",
      "priority": "urgent",
      "subject": {
        "reference": "example-rec-10-patient-view-POS-Cocaine-drugs"
      },
      "encounter": {
        "reference": "example-rec-10-patient-view-POS-Cocaine-drugs-prefetch"
      },
      "action": [
        {
          "title": "Positive Cocaine or PCP or Opiates in Urine Screening",
          "description": "<br/>*Positive for Cocaine: <br/>2022-06-02<br/>Note: result may be false positive result or indicate patient is occasional user or addicted to the illicit drug. For guidance on counseling patients regarding the purpose of urine toxicology test, review the draft CDC 2022 Opioid Prescribing Guideline Recommendation 10 page 140 lines 3441 - 3446."
        },
        {
          "description": "Not for chronic pain management. Snooze 3 months"
        },
        {
          "description": "N/A - see comment, snooze 3 months"
        },
        {
          "description": "Will repeat urine drug screen more frequently"
        },
        {
          "description": "Will assess patient for substance abuse disorder"
        },
        {
          "description": "Will access CDS quality improvement and care coordination for prescribing opioids for chronic pain https://www.cdc.gov/drugoverdose/pdf/prescribing/CDC-DUIP-QualityImprovementAndCareCoordination-508.pdf"
        },
        {
          "extension": [
            {
              "url": null,
              "valueString": "warning"
            }
          ],
          "title": "Tested Positive for Cocaine, Opiates, or PCP",
          "description": "Urine screening showed positive for cocaine, opiates or PCP",
          "documentation": [
            {
              "type": "documentation",
              "display": "CDC guideline for prescribing opioids for chronic pain",
              "url": "https://www.federalregister.gov/documents/2022/02/10/2022-02802/proposed-2022-cdc-clinical-practice-guideline-for-prescribing-opioids",
              "document": {
                "url": "https://www.federalregister.gov/documents/2022/02/10/2022-02802/proposed-2022-cdc-clinical-practice-guideline-for-prescribing-opioids"
              }
            },
            {
              "type": "documentation",
              "document": {
                "extension": [
                  {
                    "url": "http://hl7.org/fhir/StructureDefinition/cqf-strengthOfRecommendation",
                    "valueCodeableConcept": {
                      "coding": [
                        {
                          "system": "http://terminology.hl7.org/CodeSystem/recommendation-strength",
                          "code": "weak",
                          "display": "Weak"
                        }
                      ]
                    }
                  },
                  {
                    "url": "http://hl7.org/fhir/StructureDefinition/cqf-qualityOfEvidence",
                    "valueCodeableConcept": {
                      "coding": [
                        {
                          "system": "http://terminology.hl7.org/CodeSystem/evidence-quality",
                          "code": "very-low",
                          "display": "Very Low quality"
                        }
                      ]
                    }
                  }
                ]
              }
            }
          ],
          "resource": {
            "reference": "ServiceRequest/opioidcds-urine-screening-request"
          }
        }
      ]
    },
    {
      "resourceType": "ServiceRequest",
      "id": "opioidcds-urine-screening-request",
      "status": "draft",
      "intent": "order",
      "code": {
        "coding": [
          {
            "system": "http://snomed.info/sct",
            "code": "310627008",
            "display": "Urine drug screening (procedure)"
          }
        ]
      },
      "subject": {
        "reference": "example-rec-10-patient-view-POS-Cocaine-drugs"
      }
    }
  ],
  "instantiatesCanonical": [
    "http://fhir.org/guides/cdc/opioid-cds/PlanDefinition/opioidcds-10-patient-view"
  ],
  "status": "draft",
  "intent": "proposal",
  "subject": {
    "reference": "example-rec-10-patient-view-POS-Cocaine-drugs"
  },
  "encounter": {
    "reference": "example-rec-10-patient-view-POS-Cocaine-drugs-prefetch"
  },
  "activity": [
    {
      "reference": {
        "reference": "#RequestGroup/opioidcds-10-patient-view"
      }
    }
  ]
}