{
  "resourceType": "Bundle",
  "id": "prepopulate",
  "type": "collection",
  "entry": [
    {
      "resource": {
        "resourceType": "RequestGroup",
        "id": "prepopulate",
        "instantiatesCanonical": [
          "http://fhir.org/guides/cdc/opioid-cds/PlanDefinition/prepopulate|1.0.0"
        ],
        "status": "draft",
        "intent": "proposal",
        "subject": {
          "reference": "Patient/OPA-Patient1"
        },
        "action": [
          {
            "id": "task-complete-questionnaire",
            "extension": [
              {
                "url": "http://hl7.org/fhir/uv/sdc/StructureDefinition/sdc-questionnaire-prepopulate",
                "extension": [
                  {
                    "url": "http://hl7.org/fhir/uv/sdc/StructureDefinition/sdc-questionnaire-prepopulate-parameter",
                    "valueString": "ClaimId"
                  },
                  {
                    "url": "http://hl7.org/fhir/uv/sdc/StructureDefinition/sdc-questionnaire-lookupQuestionnaire",
                    "valueCanonical": "http://hl7.org/fhir/Questionnaire/OutpatientPriorAuthorizationRequest"
                  }
                ]
              }
            ],
            "title": "Prepopulate!",
            "description": "A simple recommendation to complete a prepopulated Questionnaire",
            "resource": {
              "reference": "Task/task-complete-questionnaire"
            }
          }
        ]
      }
    },
    {
      "resource": {
        "resourceType": "Task",
        "id": "task-complete-questionnaire",
        "instantiatesCanonical": "http://fhir.org/guides/cdc/opioid-cds/ActivityDefinition/complete-questionnaire",
        "basedOn": [
          {
            "reference": "RequestGroup/prepopulate"
          }
        ],
        "status": "draft",
        "intent": "proposal",
        "description": "Create a task to complete a Questionnaire.",
        "for": {
          "reference": "Patient/OPA-Patient1"
        }
      }
    }
  ]
}