{
  "resourceType": "Bundle",
  "id": "EXM125-8.0.000-bundle",
  "type": "transaction",
  "entry": [
    {
      "resource": {
        "resourceType": "ValueSet",
        "id": "2.16.840.1.114222.4.11.836",
        "url": "http://cts.nlm.nih.gov/fhir/ValueSet/2.16.840.1.114222.4.11.836",
        "identifier": [
          {
            "system": "urn:ietf:rfc:3986",
            "value": "2.16.840.1.114222.4.11.836"
          }
        ],
        "version": "20121025",
        "name": "Race",
        "title": "Race",
        "status": "active",
        "publisher": "NLM",
        "compose": {
          "include": [
            {
              "system": "http://www.cdc.gov/phin/resources/vocabulary/index.html",
              "version": "1.2",
              "concept": [
                {
                  "code": "1002-5",
                  "display": "American Indian or Alaska Native"
                },
                {
                  "code": "2028-9",
                  "display": "Asian"
                },
                {
                  "code": "2054-5",
                  "display": "Black or African American"
                },
                {
                  "code": "2076-8",
                  "display": "Native Hawaiian or Other Pacific Islander"
                },
                {
                  "code": "2106-3",
                  "display": "White"
                },
                {
                  "code": "2131-1",
                  "display": "Other Race"
                }
              ]
            }
          ]
        }
      },
      "request": {
        "method": "PUT",
        "url": "ValueSet/2.16.840.1.114222.4.11.836"
      }
    },
    {
      "resource": {
        "resourceType": "ValueSet",
        "id": "2.16.840.1.114222.4.11.837",
        "url": "http://cts.nlm.nih.gov/fhir/ValueSet/2.16.840.1.114222.4.11.837",
        "identifier": [
          {
            "system": "urn:ietf:rfc:3986",
            "value": "2.16.840.1.114222.4.11.837"
          }
        ],
        "version": "20121025",
        "name": "Ethnicity",
        "title": "Ethnicity",
        "status": "active",
        "publisher": "NLM",
        "compose": {
          "include": [
            {
              "system": "http://www.cdc.gov/phin/resources/vocabulary/index.html",
              "version": "1.2",
              "concept": [
                {
                  "code": "2135-2",
                  "display": "Hispanic or Latino"
                },
                {
                  "code": "2186-5",
                  "display": "Not Hispanic or Latino"
                }
              ]
            }
          ]
        }
      },
      "request": {
        "method": "PUT",
        "url": "ValueSet/2.16.840.1.114222.4.11.837"
      }
    },
    {
      "resource": {
        "resourceType": "Measure",
        "id": "measure-EXM125-8.0.000",
        "meta": {
          "lastUpdated": "2020-01-29T22:38:33.401-07:00",
          "profile": [
            "http://hl7.org/fhir/us/cqfmeasures/StructureDefinition/proportion-measure-cqfm"
          ]
        },
        "text": {
          "status": "generated",
          "div": "<div xmlns=\"http://www.w3.org/1999/xhtml\"><table class=\"grid dict\"><tr style=\"vertical-align: top;\"><th scope=\"row\"><b>Id: </b></th><td style=\"padding-left: 25px; padding-right: 25px;\">Measure/measure-EXM125</td></tr><tr style=\"vertical-align: top;\"><th rowspan=\"1\" scope=\"row\"><b>Type: </b></th><td style=\"padding-left: 25px; padding-right: 25px;\"><span><br/><span><span style=\"padding-left: 25px;\"><b>system: </b><span>http://hl7.org/fhir/measure-type</span><br/></span><span style=\"padding-left: 25px;\"><b>code: </b><span>process</span></span></span></span></td></tr><tr style=\"vertical-align: top;\"><th rowspan=\"2\" scope=\"row\"><b>Identifier: </b></th><td style=\"padding-left: 25px; padding-right: 25px;\"><b>system: </b><span>http://hl7.org/fhir/cqi/ecqm/Measure/Identifier/cms</span><br/><b>value: </b><span>146</span></td></tr><tr style=\"vertical-align: top;\"><td style=\"padding-left: 25px; padding-right: 25px;\"><b>system: </b><span>http://hl7.org/fhir/cqi/ecqm/Measure/Identifier/nqf</span><br/><b>value: </b><span>0002</span></td></tr><tr style=\"vertical-align: top;\"><th scope=\"row\"><b>Title: </b></th><td style=\"padding-left: 25px; padding-right: 25px;\">Breast Cancer Screening</td></tr><tr style=\"vertical-align: top;\"><th scope=\"row\"><b>Status: </b></th><td style=\"padding-left: 25px; padding-right: 25px;\">active</td></tr><tr style=\"vertical-align: top;\"><th scope=\"row\"><b>Description: </b></th><td style=\"padding-left: 25px; padding-right: 25px;\">Percentage of women 50-74 years of age who had a mammogram to screen for breast cancer</td></tr><tr style=\"vertical-align: top;\"><th scope=\"row\"><b>Purpose: </b></th><td style=\"padding-left: 25px; padding-right: 25px;\">Women 51-74 years of age with a visit during the measurement period</td></tr><tr style=\"vertical-align: top;\"><th rowspan=\"1\" scope=\"row\"><b>Use Context: </b></th><td style=\"padding-left: 25px; padding-right: 25px;\"><p style=\"padding-left: 25px; margin-bottom: 5px;\"><b>code: </b><span>program</span></p><p style=\"padding-left: 25px; margin-bottom: 5px;\"><b>value: </b><br/><span><span style=\"padding-left: 25px;\"><b>text: </b><span>eligibile-provider</span></span></span></p></td></tr><tr style=\"vertical-align: top;\"><th rowspan=\"1\" scope=\"row\"><b>Topic: </b></th><td style=\"padding-right: 25px;\"><span><br/><span><span style=\"padding-left: 25px;\"><b>system: </b><span>http://loinc.org</span><br/></span><span style=\"padding-left: 25px;\"><b>code: </b><span>57024-2</span><br/></span><span style=\"padding-left: 25px;\"><b>display: </b><span>Health Quality Measure Document</span></span></span></span></td></tr><tr style=\"vertical-align: top;\"><th rowspan=\"1\" scope=\"row\"><b>Contributor: </b></th><td style=\"padding-left: 25px; padding-right: 25px;\"><b><span>author</span>: </b><span>National Committee for Quality Assurance</span></td></tr><tr style=\"vertical-align: top;\"><th rowspan=\"5\" scope=\"row\"><b>Related: </b></th><td style=\"padding-left: 25px; padding-right: 25px;\"><p style=\"margin-bottom: 5px;\"><b>type: </b><span>citation</span></p><p style=\"margin-bottom: 5px;\"><b>citation: </b><br/><span>American Cancer Society. 2010. Cancer Facts &amp; Figures 2010. Atlanta: American Cancer Society.</span></p></td></tr><tr style=\"vertical-align: top;\"><td style=\"padding-left: 25px; padding-right: 25px;\"><p style=\"margin-bottom: 5px;\"><b>type: </b><span>citation</span></p><p style=\"margin-bottom: 5px;\"><b>citation: </b><br/><span>National Cancer Institute. 2010. &quot;Breast Cancer Screening.&quot; http://www.cancer.gov/cancertopics/pdq/screening/breast/healthprofessional</span></p></td></tr><tr style=\"vertical-align: top;\"><td style=\"padding-left: 25px; padding-right: 25px;\"><p style=\"margin-bottom: 5px;\"><b>type: </b><span>citation</span></p><p style=\"margin-bottom: 5px;\"><b>citation: </b><br/><span>National Business Group on Health. 2011. Pathways to Managing Cancer in the Workplace. Washington: National Business Group on Health.</span></p></td></tr><tr style=\"vertical-align: top;\"><td style=\"padding-left: 25px; padding-right: 25px;\"><p style=\"margin-bottom: 5px;\"><b>type: </b><span>citation</span></p><p style=\"margin-bottom: 5px;\"><b>citation: </b><br/><span>U.S. Preventive Services Task Force (USPSTF). 2009. 1) &quot;Screening for breast cancer: U.S. Preventive Services Task Force recommendation statement.&quot; 2) &quot;December 2009 addendum.&quot; Ann Intern Med 151(10):716-726.</span></p></td></tr><tr style=\"vertical-align: top;\"><td style=\"padding-left: 25px; padding-right: 25px;\"><p style=\"margin-bottom: 5px;\"><b>type: </b><span>citation</span></p><p style=\"margin-bottom: 5px;\"><b>citation: </b><br/><span>BreastCancer.org. 2012. U.S. Breast Cancer Statistics. www.breastcancer.org/symptoms/understand_bc/statistics.jsp</span></p></td></tr><tr style=\"vertical-align: top;\"><th rowspan=\"1\" scope=\"row\"><b>Library: </b></th><td><p style=\"padding-left: 25px; padding-right: 25px;\"><b>reference: </b><span>Library/library-EXM125</span></p></td></tr><tr><th scope=\"row\"><b>Disclaimer: </b></th><td style=\"padding-left: 25px; padding-right: 25px;\">The performance Measure is not a clinical guideline and does not establish a standard of medical care, and has not been tested for all potential applications. THE MEASURE AND SPECIFICATIONS ARE PROVIDED &quot;AS IS&quot; WITHOUT WARRANTY OF ANY KIND.</td></tr><tr><th scope=\"row\"><b>Scoring: </b></th><td style=\"padding-left: 25px; padding-right: 25px;\"><span><br/><span><span style=\"padding-left: 25px;\"><b>system: </b><span>http://hl7.org/fhir/measure-scoring</span><br/></span><span style=\"padding-left: 25px;\"><b>code: </b><span>proportion</span></span></span></span></td></tr><tr><th scope=\"row\"><b>Rationale: </b></th><td style=\"padding-left: 25px; padding-right: 25px;\">Breast cancer is one of the most common types of cancers, accounting for a quarter of all new cancer diagnoses for women in the U.S. (BreastCancer.Org, 2011). It ranks as the second leading cause of cancer-related mortality in women, accounting for nearly 40,000 estimated deaths in 2013 (American Cancer Society, 2011). &lt;br&gt; According to the National Cancer Institute's Surveillance Epidemiology and End Results program, the chance of a woman being diagnosed with breast cancer in a given year increases with age. By age 30, it is one in 2,212. By age 40, the chances increase to one in 235, by age 50, it becomes one in 54, and, by age 60, it is one in 25. From 2004 to 2008, the median age at the time of breast cancer diagnosis was 61 years among adult women (Tangka et al, 2010). &lt;br&gt; In the U.S., costs associated with a diagnosis of breast cancer range from $451 to $2,520, factoring in continued testing, multiple office visits, and varying procedures. The total costs related to breast cancer add up to nearly $7 billion per year in the U.S., including $2 billion spent on late-stage treatment (Lavigne et al, 2008; Boykoff et al, 2009).</td></tr><tr><th scope=\"row\"><b>Clinical Recommendation: </b></th><td style=\"padding-left: 25px; padding-right: 25px;\">The U.S. Preventive Services Task Force (USPSTF) recommends biennial screening mammography for women aged 50-74 years (B recommendation). The decision to start regular, biennial screening mammography before the age of 50 years should be an individual one and take patient context into account, including the patient's values regarding specific benefits and harms (C recommendation). The Task Force concludes the evidence is insufficient to assess the additional benefits and harms of screening mammography in women 75 years and older (I statement). &lt;br&gt; U.S. Preventive Services Task Force (2009) &lt;br&gt; Grade: B recommendation. The USPSTF recommends biennial screening mammography for women aged 50 to 74 years. &lt;br&gt; Grade: C recommendation. The decision to start regular, biennial screening mammography before the age of 50 years should be an individual one and take patient context into account, including the patient's values regarding specific benefits and harms. &lt;br&gt; Grade: I Statement. The USPSTF concludes that the current evidence is insufficient to assess the additional benefits and harms of screening mammography in women 75 years or older. &lt;br&gt; Grade: D recommendation. The USPSTF recommends against teaching breast self-examination (BSE). &lt;br&gt; Grade: I Statement. The USPSTF concludes that the current evidence is insufficient to assess the additional benefits and harms of clinical breast examination (CBE) beyond screening mammography in women 40 years or older. &lt;br&gt; Grade: I Statement. The USPSTF concludes that the current evidence is insufficient to assess the additional benefits and harms of either digital mammography or magnetic resonance imaging (MRI) instead of film mammography as screening modalities for breast cancer.</td></tr><tr><th scope=\"row\"><b>Guidance: </b></th><td style=\"padding-left: 25px; padding-right: 25px;\">Patient self-report for procedures as well as diagnostic studies should be recorded in 'Procedure, Performed' template or 'Diagnostic Study, Performed' template in QRDA-1. Patient self-report is not allowed for laboratory tests. &lt;br&gt; This measure evaluates primary screening. Do not count biopsies, breast ultrasounds, MRIs or tomosynthesis (3D mammography), because they are not appropriate methods for primary breast cancer screening.</td></tr><tr style=\"vertical-align: top;\"><th scope=\"row\"><b>Group:</b></th><td><p style=\"padding-left: 25px; padding-right: 25px;\"><b>Identifier:</b><br/><span style=\"padding-left: 25px;\"><b>value: </b><span>group-1</span><br/></span></p></td></tr><tr style=\"vertical-align: top;\"><td colspan=\"2\"><table style=\"margin-bottom: 5px; width: 100%\"><tr style=\"vertical-align: top;\"><th rowspan=\"4\" scope=\"row\" style=\"padding-left: 25px;\"><b>Population:</b></th><td><p style=\"margin-bottom: 5px; padding-left: 25px;\"><b>Identifier:</b><br/><span style=\"padding-left: 25px;\"><b>value: </b><span>initial-population-identifier</span><br/></span></p><p style=\"margin-bottom: 5px; padding-left: 25px;\"><b>criteria: </b><span>Initial Population</span></p></td></tr><tr style=\"vertical-align: top;\"><td><p style=\"margin-bottom: 5px; padding-left: 25px;\"><b>Identifier:</b><br/><span style=\"padding-left: 25px;\"><b>value: </b><span>numerator-identifier</span><br/></span></p><p style=\"margin-bottom: 5px; padding-left: 25px;\"><b>criteria: </b><span>Numerator</span></p></td></tr><tr style=\"vertical-align: top;\"><td><p style=\"margin-bottom: 5px; padding-left: 25px;\"><b>Identifier:</b><br/><span style=\"padding-left: 25px;\"><b>value: </b><span>denominator-identifier</span><br/></span></p><p style=\"margin-bottom: 5px; padding-left: 25px;\"><b>criteria: </b><span>Denominator</span></p></td></tr><tr style=\"vertical-align: top;\"><td><p style=\"margin-bottom: 5px; padding-left: 25px;\"><b>Identifier:</b><br/><span style=\"padding-left: 25px;\"><b>value: </b><span>denominator-exclusions-identifier</span><br/></span></p><p style=\"margin-bottom: 5px; padding-left: 25px;\"><b>criteria: </b><span>Denominator Exclusion</span></p></td></tr></table></td></tr><tr><th rowspan=\"4\" scope=\"row\"><b>Supplemental Data:</b></th><td style=\"padding-left: 25px; padding-right: 25px;\"><p style=\"margin-bottom: 5px;\"><b>Identifier:</b><br/><span style=\"padding-left: 25px;\"><b>value: </b><span>sde-ethnicity</span><br/></span></p><p style=\"margin-bottom: 5px;\"><b>usage: </b><span><span><br/><span><span style=\"padding-left: 25px;\"><b>system: </b><span>http://hl7.org/fhir/measure-data-usage</span><br/></span><span style=\"padding-left: 25px;\"><b>code: </b><span>supplemental-data</span></span></span></span></span></p><p style=\"margin-bottom: 5px;\"><b>criteria: </b><span>SDE Ethnicity</span></p></td></tr><tr><td style=\"padding-left: 25px; padding-right: 25px;\"><p style=\"margin-bottom: 5px;\"><b>Identifier:</b><br/><span style=\"padding-left: 25px;\"><b>value: </b><span>sde-payer</span><br/></span></p><p style=\"margin-bottom: 5px;\"><b>usage: </b><span><span><br/><span><span style=\"padding-left: 25px;\"><b>system: </b><span>http://hl7.org/fhir/measure-data-usage</span><br/></span><span style=\"padding-left: 25px;\"><b>code: </b><span>supplemental-data</span></span></span></span></span></p><p style=\"margin-bottom: 5px;\"><b>criteria: </b><span>SDE Payer</span></p></td></tr><tr><td style=\"padding-left: 25px; padding-right: 25px;\"><p style=\"margin-bottom: 5px;\"><b>Identifier:</b><br/><span style=\"padding-left: 25px;\"><b>value: </b><span>sde-race</span><br/></span></p><p style=\"margin-bottom: 5px;\"><b>usage: </b><span><span><br/><span><span style=\"padding-left: 25px;\"><b>system: </b><span>http://hl7.org/fhir/measure-data-usage</span><br/></span><span style=\"padding-left: 25px;\"><b>code: </b><span>supplemental-data</span></span></span></span></span></p><p style=\"margin-bottom: 5px;\"><b>criteria: </b><span>SDE Race</span></p></td></tr><tr><td style=\"padding-left: 25px; padding-right: 25px;\"><p style=\"margin-bottom: 5px;\"><b>Identifier:</b><br/><span style=\"padding-left: 25px;\"><b>value: </b><span>sde-sex</span><br/></span></p><p style=\"margin-bottom: 5px;\"><b>usage: </b><span><span><br/><span><span style=\"padding-left: 25px;\"><b>system: </b><span>http://hl7.org/fhir/measure-data-usage</span><br/></span><span style=\"padding-left: 25px;\"><b>code: </b><span>supplemental-data</span></span></span></span></span></p><p style=\"margin-bottom: 5px;\"><b>criteria: </b><span>SDE Sex</span></p></td></tr></table></div>"
        },
        "contained": [
          {
            "resourceType": "Device",
            "id": "cqf-tooling",
            "meta": {
              "profile": [
                "http://hl7.org/fhir/us/cqfmeasures/StructureDefinition/device-softwaresystem-cqfm"
              ]
            },
            "type": {
              "coding": [
                {
                  "system": "http://hl7.org/fhir/us/cqfmeasures/CodeSystem/software-system-type",
                  "code": "tooling"
                }
              ]
            },
            "version": [
              {
                "value": "1.1.0-SNAPSHOT"
              }
            ]
          }
        ],
        "extension": [
          {
            "url": "http://hl7.org/fhir/us/cqfmeasures/StructureDefinition/cqfm-populationBasis",
            "valueCode": "boolean"
          },
          {
            "url": "http://hl7.org/fhir/us/cqfmeasures/StructureDefinition/cqfm-softwaresystem",
            "valueReference": {
              "reference": "#cqf-tooling"
            }
          }
        ],
        "url": "http://hl7.org/fhir/us/cqfmeasures/Measure/measure-EXM125",
        "identifier": [
          {
            "use": "official",
            "system": "http://hl7.org/fhir/cqi/ecqm/Measure/Identifier/cms",
            "value": "125"
          },
          {
            "use": "official",
            "system": "http://hl7.org/fhir/cqi/ecqm/Measure/Identifier/nqf",
            "value": "2372"
          }
        ],
        "version": "8.0.000",
        "name": "EXM125",
        "title": "Breast Cancer Screening",
        "status": "active",
        "experimental": true,
        "date": "2018-08-31",
        "publisher": "National Committee for Quality Assurance",
        "contact": [
          {
            "telecom": [
              {
                "system": "url",
                "value": "http://www.ncqa.org/"
              }
            ]
          }
        ],
        "description": "Percentage of women 50-74 years of age who had a mammogram to screen for breast cancer",
        "useContext": [
          {
            "code": {
              "code": "program"
            },
            "valueCodeableConcept": {
              "text": "eligible-provider"
            }
          }
        ],
        "jurisdiction": [
          {
            "coding": [
              {
                "system": "urn:iso:std:iso:3166",
                "code": "US"
              }
            ]
          }
        ],
        "purpose": "Women 51-74 years of age with a visit during the measurement period",
        "copyright": "This Physician Performance Measure (Measure) and related data specifications were developed by the National Committee for Quality Assurance (NCQA). NCQA is not responsible for any use of the Measure. NCQA makes no representations, warranties, or endorsement about the quality of any organization or physician that uses or reports performance measures and NCQA has no liability to anyone who relies on such measures or specifications. NCQA holds a copyright in the Measure. The Measure can be reproduced and distributed, without modification, for noncommercial purposes (eg, use by healthcare providers in connection with their practices) without obtaining approval from NCQA. Commercial use is defined as the sale, licensing, or distribution of the Measure for commercial gain, or incorporation of the Measure into a product or service that is sold, licensed or distributed for commercial gain. All commercial uses or requests for modification must be approved by NCQA and are subject to a license at the discretion of NCQA. (C) 2012-2017 National Committee for Quality Assurance. All Rights Reserved. Limited proprietary coding is contained in the Measure specifications for user convenience. Users of proprietary code sets should obtain all necessary licenses from the owners of the code sets. NCQA disclaims all liability for use or accuracy of any third party codes contained in the specifications. CPT(R) contained in the Measure specifications is copyright 2004-2017 American Medical Association. LOINC(R) copyright 2004-2017 Regenstrief Institute, Inc. This material contains SNOMED Clinical Terms(R) (SNOMED CT[R] ) copyright 2004-2017 International Health Terminology Standards Development Organisation. ICD-10 copyright 2017 World Health Organization. All Rights Reserved.",
        "approvalDate": "2016-01-01",
        "lastReviewDate": "2016-09-01",
        "effectivePeriod": {
          "start": "2019-01-01",
          "end": "2019-12-31"
        },
        "topic": [
          {
            "coding": [
              {
                "system": "http://loinc.org",
                "code": "57024-2",
                "display": "Health Quality Measure Document"
              }
            ]
          }
        ],
        "relatedArtifact": [
          {
            "type": "citation",
            "citation": "American Cancer Society. 2010. Cancer Facts & Figures 2010. Atlanta: American Cancer Society."
          },
          {
            "type": "citation",
            "citation": "National Cancer Institute. 2010. \"Breast Cancer Screening.\" http://www.cancer.gov/cancertopics/pdq/screening/breast/healthprofessional"
          },
          {
            "type": "citation",
            "citation": "National Business Group on Health. 2011. Pathways to Managing Cancer in the Workplace. Washington: National Business Group on Health."
          },
          {
            "type": "citation",
            "citation": "U.S. Preventive Services Task Force (USPSTF). 2009. 1) \"Screening for breast cancer: U.S. Preventive Services Task Force recommendation statement.\" 2) \"December 2009 addendum.\" Ann Intern Med 151(10):716-726."
          },
          {
            "type": "citation",
            "citation": "BreastCancer.org. 2012. U.S. Breast Cancer Statistics. www.breastcancer.org/symptoms/understand_bc/statistics.jsp"
          },
          {
            "type": "depends-on",
            "resource": "Library/library-FHIRHelpers-4.0.1"
          },
          {
            "type": "depends-on",
            "resource": "Library/library-Hospice-2.0.000"
          },
          {
            "type": "depends-on",
            "resource": "Library/library-AdultOutpatientEncounters-2.0.000"
          },
          {
            "type": "depends-on",
            "resource": "Library/library-MATGlobalCommonFunctions-5.0.000"
          },
          {
            "type": "depends-on",
            "resource": "Library/library-SupplementalDataElements-2.0.0"
          }
        ],
        "library": [
          "Library/library-EXM125-8.0.000"
        ],
        "disclaimer": "The performance Measure is not a clinical guideline and does not establish a standard of medical care, and has not been tested for all potential applications. THE MEASURE AND SPECIFICATIONS ARE PROVIDED \"AS IS\" WITHOUT WARRANTY OF ANY KIND. Due to technical limitations, registered trademarks are indicated by (R) or [R] and unregistered trademarks are indicated by (TM) or [TM].",
        "scoring": {
          "coding": [
            {
              "system": "http://hl7.org/fhir/measure-scoring",
              "code": "proportion"
            }
          ]
        },
        "type": [
          {
            "coding": [
              {
                "system": "http://hl7.org/fhir/measure-type",
                "code": "process"
              }
            ]
          }
        ],
        "rationale": "Breast cancer is one of the most common types of cancers, accounting for a quarter of all new cancer diagnoses for women in the U.S. (BreastCancer.Org, 2011). It ranks as the second leading cause of cancer-related mortality in women, accounting for nearly 40,000 estimated deaths in 2013 (American Cancer Society, 2011). <br> According to the National Cancer Institute's Surveillance Epidemiology and End Results program, the chance of a woman being diagnosed with breast cancer in a given year increases with age. By age 30, it is one in 2,212. By age 40, the chances increase to one in 235, by age 50, it becomes one in 54, and, by age 60, it is one in 25. From 2004 to 2008, the median age at the time of breast cancer diagnosis was 61 years among adult women (Tangka et al, 2010). <br> In the U.S., costs associated with a diagnosis of breast cancer range from $451 to $2,520, factoring in continued testing, multiple office visits, and varying procedures. The total costs related to breast cancer add up to nearly $7 billion per year in the U.S., including $2 billion spent on late-stage treatment (Lavigne et al, 2008; Boykoff et al, 2009).",
        "clinicalRecommendationStatement": "The U.S. Preventive Services Task Force (USPSTF) recommends biennial screening mammography for women aged 50-74 years (B recommendation). The decision to start regular, biennial screening mammography before the age of 50 years should be an individual one and take patient context into account, including the patient's values regarding specific benefits and harms (C recommendation). The Task Force concludes the evidence is insufficient to assess the additional benefits and harms of screening mammography in women 75 years and older (I statement). <br> U.S. Preventive Services Task Force (2009) <br> Grade: B recommendation. The USPSTF recommends biennial screening mammography for women aged 50 to 74 years. <br> Grade: C recommendation. The decision to start regular, biennial screening mammography before the age of 50 years should be an individual one and take patient context into account, including the patient's values regarding specific benefits and harms. <br> Grade: I Statement. The USPSTF concludes that the current evidence is insufficient to assess the additional benefits and harms of screening mammography in women 75 years or older. <br> Grade: D recommendation. The USPSTF recommends against teaching breast self-examination (BSE). <br> Grade: I Statement. The USPSTF concludes that the current evidence is insufficient to assess the additional benefits and harms of clinical breast examination (CBE) beyond screening mammography in women 40 years or older. <br> Grade: I Statement. The USPSTF concludes that the current evidence is insufficient to assess the additional benefits and harms of either digital mammography or magnetic resonance imaging (MRI) instead of film mammography as screening modalities for breast cancer.",
        "improvementNotation": {
          "coding": [
            {
              "system": "http://terminology.hl7.org/CodeSystem/measure-improvement-notation",
              "code": "increase"
            }
          ]
        },
        "guidance": "Patient self-report for procedures as well as diagnostic studies should be recorded in 'Procedure, Performed' template or 'Diagnostic Study, Performed' template in QRDA-1. Patient self-report is not allowed for laboratory tests. <br> This measure evaluates primary screening. Do not count biopsies, breast ultrasounds, MRIs or tomosynthesis (3D mammography), because they are not appropriate methods for primary breast cancer screening.",
        "group": [
          {
            "id": "group-1",
            "population": [
              {
                "code": {
                  "coding": [
                    {
                      "system": "http://terminology.hl7.org/CodeSystem/measure-population",
                      "code": "initial-population",
                      "display": "Initial Population"
                    }
                  ]
                },
                "criteria": {
                  "language": "text/cql",
                  "expression": "Initial Population"
                }
              },
              {
                "code": {
                  "coding": [
                    {
                      "system": "http://terminology.hl7.org/CodeSystem/measure-population",
                      "code": "numerator",
                      "display": "Numerator"
                    }
                  ]
                },
                "criteria": {
                  "language": "text/cql",
                  "expression": "Numerator"
                }
              },
              {
                "code": {
                  "coding": [
                    {
                      "system": "http://terminology.hl7.org/CodeSystem/measure-population",
                      "code": "denominator",
                      "display": "Denominator"
                    }
                  ]
                },
                "criteria": {
                  "language": "text/cql",
                  "expression": "Denominator"
                }
              },
              {
                "code": {
                  "coding": [
                    {
                      "system": "http://terminology.hl7.org/CodeSystem/measure-population",
                      "code": "denominator-exclusion",
                      "display": "Denominator Exclusion"
                    }
                  ]
                },
                "criteria": {
                  "language": "text/cql",
                  "expression": "Denominator Exclusion"
                }
              }
            ]
          }
        ],
        "supplementalData": [
          {
            "code": {
              "text": "sde-ethnicity"
            },
            "usage": [
              {
                "coding": [
                  {
                    "system": "http://hl7.org/fhir/measure-data-usage",
                    "code": "supplemental-data"
                  }
                ]
              }
            ],
            "criteria": {
              "language": "text/cql",
              "expression": "SDE Ethnicity"
            }
          },
          {
            "code": {
              "text": "sde-payer"
            },
            "usage": [
              {
                "coding": [
                  {
                    "system": "http://hl7.org/fhir/measure-data-usage",
                    "code": "supplemental-data"
                  }
                ]
              }
            ],
            "criteria": {
              "language": "text/cql",
              "expression": "SDE Payer"
            }
          },
          {
            "code": {
              "text": "sde-race"
            },
            "usage": [
              {
                "coding": [
                  {
                    "system": "http://hl7.org/fhir/measure-data-usage",
                    "code": "supplemental-data"
                  }
                ]
              }
            ],
            "criteria": {
              "language": "text/cql",
              "expression": "SDE Race"
            }
          },
          {
            "code": {
              "text": "sde-sex"
            },
            "usage": [
              {
                "coding": [
                  {
                    "system": "http://hl7.org/fhir/measure-data-usage",
                    "code": "supplemental-data"
                  }
                ]
              }
            ],
            "criteria": {
              "language": "text/cql",
              "expression": "SDE Sex"
            }
          }
        ]
      },
      "request": {
        "method": "PUT",
        "url": "Measure/measure-EXM125-8.0.000"
      }
    },
    {
      "resource": {
        "resourceType": "ValueSet",
        "id": "2.16.840.1.113883.3.464.1003.198.12.1020",
        "url": "http://cts.nlm.nih.gov/fhir/ValueSet/2.16.840.1.113883.3.464.1003.198.12.1020",
        "identifier": [
          {
            "system": "urn:ietf:rfc:3986",
            "value": "2.16.840.1.113883.3.464.1003.198.12.1020"
          }
        ],
        "version": "20171216",
        "name": "UnilateralMastectomy",
        "title": "Unilateral Mastectomy",
        "status": "active",
        "publisher": "NLM",
        "compose": {
          "include": [
            {
              "system": "http://www.ama-assn.org/go/cpt",
              "version": "2006",
              "concept": [
                {
                  "code": "19180",
                  "display": "Mastectomy, simple, complete"
                },
                {
                  "code": "19200",
                  "display": "Mastectomy, radical, including pectoral muscles, axillary lymph nodes"
                },
                {
                  "code": "19220",
                  "display": "Mastectomy, radical, including pectoral muscles, axillary and internal mammary lymph nodes (Urban type operation)"
                },
                {
                  "code": "19240",
                  "display": "Mastectomy, modified radical, including axillary lymph nodes, with or without pectoralis minor muscle, but excluding pectoralis major muscle"
                }
              ]
            },
            {
              "system": "http://www.ama-assn.org/go/cpt",
              "version": "2018",
              "concept": [
                {
                  "code": "19303",
                  "display": "Mastectomy, simple, complete"
                },
                {
                  "code": "19304",
                  "display": "Mastectomy, subcutaneous"
                },
                {
                  "code": "19305",
                  "display": "Mastectomy, radical, including pectoral muscles, axillary lymph nodes"
                },
                {
                  "code": "19306",
                  "display": "Mastectomy, radical, including pectoral muscles, axillary and internal mammary lymph nodes (Urban type operation)"
                },
                {
                  "code": "19307",
                  "display": "Mastectomy, modified radical, including axillary lymph nodes, with or without pectoralis minor muscle, but excluding pectoralis major muscle"
                }
              ]
            },
            {
              "system": "http://snomed.info/sct",
              "version": "2017-09",
              "concept": [
                {
                  "code": "287654001",
                  "display": "Extended simple mastectomy (procedure)"
                }
              ]
            },
            {
              "system": "http://snomed.info/sct",
              "version": "2018-03",
              "concept": [
                {
                  "code": "12275171000119105",
                  "display": "Postmastectomy lymphedema syndrome of right upper limb (disorder)"
                },
                {
                  "code": "12275221000119100",
                  "display": "Postmastectomy lymphedema syndrome of left upper limb (disorder)"
                },
                {
                  "code": "172043006",
                  "display": "Simple mastectomy (procedure)"
                },
                {
                  "code": "237367009",
                  "display": "Total mastectomy and division of pectoralis minor muscle (procedure)"
                },
                {
                  "code": "237368004",
                  "display": "Total mastectomy and excision of part of pectoral muscles and chest wall (procedure)"
                },
                {
                  "code": "237385002",
                  "display": "Excision of mastectomy scar (procedure)"
                },
                {
                  "code": "237388000",
                  "display": "Biopsy of mastectomy scar (procedure)"
                },
                {
                  "code": "274957008",
                  "display": "Radical mastectomy including axillary lymph nodes (procedure)"
                },
                {
                  "code": "287653007",
                  "display": "Subcutaneous mastectomy and prosthetic implant (procedure)"
                },
                {
                  "code": "303690008",
                  "display": "Excisional biopsy of mastectomy scar (procedure)"
                },
                {
                  "code": "307995002",
                  "display": "Excision of lesion of mastectomy scar (procedure)"
                },
                {
                  "code": "318190001",
                  "display": "Mastectomy with preservation of skin and nipple with synchronous implant (procedure)"
                },
                {
                  "code": "33129002",
                  "display": "Postmastectomy lymphedema syndrome (disorder)"
                },
                {
                  "code": "359728003",
                  "display": "Radical mastectomy including pectoral muscles and axillary lymph nodes (procedure)"
                },
                {
                  "code": "359731002",
                  "display": "Urban operation, extended radical mastectomy (procedure)"
                },
                {
                  "code": "359734005",
                  "display": "Halsted mastectomy (procedure)"
                },
                {
                  "code": "359740003",
                  "display": "Extended radical mastectomy (procedure)"
                },
                {
                  "code": "384723003",
                  "display": "Radical mastectomy (procedure)"
                },
                {
                  "code": "395702000",
                  "display": "Patey total mastectomy (procedure)"
                },
                {
                  "code": "406505007",
                  "display": "Modified radical mastectomy (procedure)"
                },
                {
                  "code": "428564008",
                  "display": "Skin sparing mastectomy (procedure)"
                },
                {
                  "code": "428571003",
                  "display": "Mastectomy of left breast (procedure)"
                },
                {
                  "code": "429400009",
                  "display": "Mastectomy of right breast (procedure)"
                },
                {
                  "code": "446109005",
                  "display": "Simple mastectomy with excision of axillary lymph nodes (procedure)"
                },
                {
                  "code": "446420001",
                  "display": "Simple mastectomy with complete axillary lymphadenectomy (procedure)"
                },
                {
                  "code": "447135002",
                  "display": "Simple mastectomy with axillary lymph node sampling (procedure)"
                },
                {
                  "code": "447421006",
                  "display": "Prophylactic mastectomy (procedure)"
                },
                {
                  "code": "451201000124106",
                  "display": "Prophylactic mastectomy of right breast (procedure)"
                },
                {
                  "code": "451211000124109",
                  "display": "Prophylactic mastectomy of left breast (procedure)"
                },
                {
                  "code": "66398006",
                  "display": "Mastectomy with excision of regional lymph nodes (procedure)"
                },
                {
                  "code": "70183006",
                  "display": "Subcutaneous mastectomy (procedure)"
                },
                {
                  "code": "714111001",
                  "display": "Post-mastectomy breast deformity (disorder)"
                },
                {
                  "code": "714252004",
                  "display": "Post-mastectomy chronic pain syndrome (disorder)"
                },
                {
                  "code": "726429001",
                  "display": "Radical mastectomy of left breast (procedure)"
                },
                {
                  "code": "726430006",
                  "display": "Radical mastectomy of right breast (procedure)"
                },
                {
                  "code": "726434002",
                  "display": "Subcutaneous mastectomy of right breast (procedure)"
                },
                {
                  "code": "726435001",
                  "display": "Subcutaneous mastectomy of left breast (procedure)"
                },
                {
                  "code": "726436000",
                  "display": "Modified radical mastectomy of right breast (procedure)"
                },
                {
                  "code": "726437009",
                  "display": "Modified radical mastectomy of left breast (procedure)"
                }
              ]
            }
          ]
        }
      },
      "request": {
        "method": "PUT",
        "url": "ValueSet/2.16.840.1.113883.3.464.1003.198.12.1020"
      }
    },
    {
      "resource": {
        "resourceType": "ValueSet",
        "id": "2.16.840.1.113883.3.464.1003.101.12.1016",
        "url": "http://cts.nlm.nih.gov/fhir/ValueSet/2.16.840.1.113883.3.464.1003.101.12.1016",
        "identifier": [
          {
            "system": "urn:ietf:rfc:3986",
            "value": "2.16.840.1.113883.3.464.1003.101.12.1016"
          }
        ],
        "version": "20180310",
        "name": "HomeHealthcareServices",
        "title": "Home Healthcare Services",
        "status": "active",
        "publisher": "NLM",
        "compose": {
          "include": [
            {
              "system": "http://www.ama-assn.org/go/cpt",
              "version": "2018",
              "concept": [
                {
                  "code": "99341",
                  "display": "Home visit for the evaluation and management of a new patient, which requires these 3 key components: A problem focused history; A problem focused examination; and Straightforward medical decision making. Counseling and/or coordination of care with other physicians, other qualified health care professionals, or agencies are provided consistent with the nature of the problem(s) and the patient's and/or family's needs. Usually, the presenting problem(s) are of low severity. Typically, 20 minutes are spent face-to-face with the patient and/or family."
                },
                {
                  "code": "99342",
                  "display": "Home visit for the evaluation and management of a new patient, which requires these 3 key components: An expanded problem focused history; An expanded problem focused examination; and Medical decision making of low complexity. Counseling and/or coordination of care with other physicians, other qualified health care professionals, or agencies are provided consistent with the nature of the problem(s) and the patient's and/or family's needs. Usually, the presenting problem(s) are of moderate severity. Typically, 30 minutes are spent face-to-face with the patient and/or family."
                },
                {
                  "code": "99343",
                  "display": "Home visit for the evaluation and management of a new patient, which requires these 3 key components: A detailed history; A detailed examination; and Medical decision making of moderate complexity. Counseling and/or coordination of care with other physicians, other qualified health care professionals, or agencies are provided consistent with the nature of the problem(s) and the patient's and/or family's needs. Usually, the presenting problem(s) are of moderate to high severity. Typically, 45 minutes are spent face-to-face with the patient and/or family."
                },
                {
                  "code": "99344",
                  "display": "Home visit for the evaluation and management of a new patient, which requires these 3 key components: A comprehensive history; A comprehensive examination; and Medical decision making of moderate complexity. Counseling and/or coordination of care with other physicians, other qualified health care professionals, or agencies are provided consistent with the nature of the problem(s) and the patient's and/or family's needs. Usually, the presenting problem(s) are of high severity. Typically, 60 minutes are spent face-to-face with the patient and/or family."
                },
                {
                  "code": "99345",
                  "display": "Home visit for the evaluation and management of a new patient, which requires these 3 key components: A comprehensive history; A comprehensive examination; and Medical decision making of high complexity. Counseling and/or coordination of care with other physicians, other qualified health care professionals, or agencies are provided consistent with the nature of the problem(s) and the patient's and/or family's needs. Usually, the patient is unstable or has developed a significant new problem requiring immediate physician attention. Typically, 75 minutes are spent face-to-face with the patient and/or family."
                },
                {
                  "code": "99347",
                  "display": "Home visit for the evaluation and management of an established patient, which requires at least 2 of these 3 key components: A problem focused interval history; A problem focused examination; Straightforward medical decision making. Counseling and/or coordination of care with other physicians, other qualified health care professionals, or agencies are provided consistent with the nature of the problem(s) and the patient's and/or family's needs. Usually, the presenting problem(s) are self limited or minor. Typically, 15 minutes are spent face-to-face with the patient and/or family."
                },
                {
                  "code": "99348",
                  "display": "Home visit for the evaluation and management of an established patient, which requires at least 2 of these 3 key components: An expanded problem focused interval history; An expanded problem focused examination; Medical decision making of low complexity. Counseling and/or coordination of care with other physicians, other qualified health care professionals, or agencies are provided consistent with the nature of the problem(s) and the patient's and/or family's needs. Usually, the presenting problem(s) are of low to moderate severity. Typically, 25 minutes are spent face-to-face with the patient and/or family."
                },
                {
                  "code": "99349",
                  "display": "Home visit for the evaluation and management of an established patient, which requires at least 2 of these 3 key components: A detailed interval history; A detailed examination; Medical decision making of moderate complexity. Counseling and/or coordination of care with other physicians, other qualified health care professionals, or agencies are provided consistent with the nature of the problem(s) and the patient's and/or family's needs. Usually, the presenting problem(s) are moderate to high severity. Typically, 40 minutes are spent face-to-face with the patient and/or family."
                },
                {
                  "code": "99350",
                  "display": "Home visit for the evaluation and management of an established patient, which requires at least 2 of these 3 key components: A comprehensive interval history; A comprehensive examination; Medical decision making of moderate to high complexity. Counseling and/or coordination of care with other physicians, other qualified health care professionals, or agencies are provided consistent with the nature of the problem(s) and the patient's and/or family's needs. Usually, the presenting problem(s) are of moderate to high severity. The patient may be unstable or may have developed a significant new problem requiring immediate physician attention. Typically, 60 minutes are spent face-to-face with the patient and/or family."
                }
              ]
            },
            {
              "system": "http://snomed.info/sct",
              "version": "2018-03",
              "concept": [
                {
                  "code": "185460008",
                  "display": "Home visit request by patient (procedure)"
                },
                {
                  "code": "185462000",
                  "display": "Home visit request by relative (procedure)"
                },
                {
                  "code": "185466002",
                  "display": "Home visit for urgent condition (procedure)"
                },
                {
                  "code": "185467006",
                  "display": "Home visit for acute condition (procedure)"
                },
                {
                  "code": "185468001",
                  "display": "Home visit for chronic condition (procedure)"
                },
                {
                  "code": "185470005",
                  "display": "Home visit elderly assessment (procedure)"
                },
                {
                  "code": "225929007",
                  "display": "Joint home visit (procedure)"
                },
                {
                  "code": "315205008",
                  "display": "Bank holiday home visit (procedure)"
                },
                {
                  "code": "439708006",
                  "display": "Home visit (procedure)"
                },
                {
                  "code": "698704008",
                  "display": "Home visit for rheumatology service (procedure)"
                },
                {
                  "code": "704126008",
                  "display": "Home visit for anticoagulant drug monitoring (procedure)"
                }
              ]
            }
          ]
        }
      },
      "request": {
        "method": "PUT",
        "url": "ValueSet/2.16.840.1.113883.3.464.1003.101.12.1016"
      }
    },
    {
      "resource": {
        "resourceType": "MeasureReport",
        "id": "measurereport-denom-EXM125-8.0.000-expectedresults",
        "contained": [
          {
            "resourceType": "Bundle",
            "id": "c8691f84-3d73-4570-8211-5696411b3fe8",
            "type": "collection",
            "entry": [
              {
                "fullUrl": "be2e5cd9-f295-4ecf-9e31-d1143427e75a",
                "resource": {
                  "resourceType": "List",
                  "id": "be2e5cd9-f295-4ecf-9e31-d1143427e75a",
                  "title": "numerator",
                  "entry": [
                    {
                      "item": {
                        "reference": "denom-EXM125-3"
                      }
                    }
                  ]
                }
              },
              {
                "fullUrl": "DiagnosticReport/denom-EXM125-3",
                "resource": {
                  "resourceType": "DiagnosticReport",
                  "id": "denom-EXM125-3",
                  "meta": {
                    "versionId": "1",
                    "lastUpdated": "2020-01-29T16:25:20.948-07:00",
                    "profile": [
                      "http://hl7.org/fhir/us/core/StructureDefinition/us-core-diagnosticreport-note"
                    ]
                  },
                  "text": {
                    "status": "generated",
                    "div": "<div xmlns=\"http://www.w3.org/1999/xhtml\"><div class=\"hapiHeaderText\"> MG Breast Diagnostic Limited Views </div><table class=\"hapiPropertyTable\"><tbody><tr><td>Status</td><td>FINAL</td></tr></tbody></table></div>"
                  },
                  "status": "final",
                  "code": {
                    "coding": [
                      {
                        "system": "http://loinc.org",
                        "code": "24604-1",
                        "display": "MG Breast Diagnostic Limited Views"
                      }
                    ]
                  },
                  "subject": {
                    "reference": "Patient/denom-EXM125"
                  },
                  "effectivePeriod": {
                    "start": "2016-11-01T00:00:00",
                    "end": "2016-11-01T00:00:00"
                  }
                }
              },
              {
                "fullUrl": "14aba553-6dd8-4439-bfb4-11bb1c2f6ce9",
                "resource": {
                  "resourceType": "List",
                  "id": "14aba553-6dd8-4439-bfb4-11bb1c2f6ce9",
                  "title": "denominator",
                  "entry": [
                    {
                      "item": {
                        "reference": "denom-EXM125"
                      }
                    },
                    {
                      "item": {
                        "reference": "denom-EXM125-1"
                      }
                    }
                  ]
                }
              },
              {
                "fullUrl": "Patient/denom-EXM125",
                "resource": {
                  "resourceType": "Patient",
                  "id": "denom-EXM125",
                  "meta": {
                    "versionId": "1",
                    "lastUpdated": "2020-01-29T16:25:20.948-07:00",
                    "profile": [
                      "http://hl7.org/fhir/us/core/StructureDefinition/us-core-patient"
                    ]
                  },
                  "text": {
                    "status": "generated",
                    "div": "<div xmlns=\"http://www.w3.org/1999/xhtml\"><div class=\"hapiHeaderText\">Dorothy <b>DUNN </b></div><table class=\"hapiPropertyTable\"><tbody><tr><td>Identifier</td><td>999999995</td></tr><tr><td>Date of birth</td><td><span>01 January 1965</span></td></tr></tbody></table></div>"
                  },
                  "extension": [
                    {
                      "url": "http://hl7.org/fhir/us/core/StructureDefinition/us-core-race",
                      "extension": [
                        {
                          "url": "ombCategory",
                          "valueCoding": {
                            "system": "urn:oid:2.16.840.1.113883.6.238",
                            "code": "2028-9",
                            "display": "Asian"
                          }
                        }
                      ]
                    },
                    {
                      "url": "http://hl7.org/fhir/us/core/StructureDefinition/us-core-ethnicity",
                      "extension": [
                        {
                          "url": "ombCategory",
                          "valueCoding": {
                            "system": "urn:oid:2.16.840.1.113883.6.238",
                            "code": "2135-2",
                            "display": "Hispanic or Latino"
                          }
                        }
                      ]
                    }
                  ],
                  "identifier": [
                    {
                      "use": "usual",
                      "type": {
                        "coding": [
                          {
                            "system": "http://terminology.hl7.org/CodeSystem/v2-0203",
                            "code": "MR",
                            "display": "Medical Record Number"
                          }
                        ]
                      },
                      "system": "http://hospital.smarthealthit.org",
                      "value": "999999995"
                    }
                  ],
                  "name": [
                    {
                      "family": "Dunn",
                      "given": [
                        "Dorothy"
                      ]
                    }
                  ],
                  "gender": "female",
                  "birthDate": "1965-01-01"
                }
              },
              {
                "fullUrl": "Encounter/denom-EXM125-1",
                "resource": {
                  "resourceType": "Encounter",
                  "id": "denom-EXM125-1",
                  "meta": {
                    "versionId": "1",
                    "lastUpdated": "2020-01-29T16:25:20.948-07:00",
                    "profile": [
                      "http://hl7.org/fhir/us/core/StructureDefinition/us-core-encounter"
                    ]
                  },
                  "status": "finished",
                  "class": {
                    "system": "http://terminology.hl7.org/CodeSystem/v3-ActCode",
                    "code": "AMB",
                    "display": "ambulatory"
                  },
                  "type": [
                    {
                      "coding": [
                        {
                          "system": "http://www.ama-assn.org/go/cpt",
                          "code": "99201",
                          "display": "Office or other outpatient visit for the evaluation and management of a new patient, which requires these 3 key components: A problem focused history; A problem focused examination; Straightforward medical decision making. Counseling and/or coordination of care with other physicians, other qualified health care professionals, or agencies are provided consistent with the nature of the problem(s) and the patient's and/or family's needs. Usually, the presenting problem(s) are self limited or minor. Typically, 10 minutes are spent face-to-face with the patient and/or family."
                        }
                      ]
                    }
                  ],
                  "subject": {
                    "reference": "Patient/denom-EXM125"
                  },
                  "period": {
                    "start": "2019-05-31T00:00:00-00:00",
                    "end": "2019-05-31T00:00:00-00:00"
                  }
                }
              },
              {
                "fullUrl": "48ff6ecc-39b2-4190-ba70-ad5c4d9cd01f",
                "resource": {
                  "resourceType": "List",
                  "id": "48ff6ecc-39b2-4190-ba70-ad5c4d9cd01f",
                  "title": "initial-population",
                  "entry": [
                    {
                      "item": {
                        "reference": "denom-EXM125"
                      }
                    },
                    {
                      "item": {
                        "reference": "denom-EXM125-1"
                      }
                    }
                  ]
                }
              }
            ]
          }
        ],
        "status": "complete",
        "type": "individual",
        "measure": "Measure/measure-EXM125-8.0.000",
        "subject": {
          "reference": "Patient/denom-EXM125"
        },
        "period": {
          "start": "2018-12-31T17:00:00-07:00",
          "end": "2019-12-30T17:00:00-07:00"
        },
        "group": [
          {
            "id": "group-1",
            "population": [
              {
                "code": {
                  "coding": [
                    {
                      "system": "http://terminology.hl7.org/CodeSystem/measure-population",
                      "code": "initial-population",
                      "display": "Initial Population"
                    }
                  ]
                },
                "count": 1
              },
              {
                "code": {
                  "coding": [
                    {
                      "system": "http://terminology.hl7.org/CodeSystem/measure-population",
                      "code": "numerator",
                      "display": "Numerator"
                    }
                  ]
                },
                "count": 0
              },
              {
                "code": {
                  "coding": [
                    {
                      "system": "http://terminology.hl7.org/CodeSystem/measure-population",
                      "code": "denominator",
                      "display": "Denominator"
                    }
                  ]
                },
                "count": 1
              },
              {
                "code": {
                  "coding": [
                    {
                      "system": "http://terminology.hl7.org/CodeSystem/measure-population",
                      "code": "denominator-exclusion",
                      "display": "Denominator Exclusion"
                    }
                  ]
                },
                "count": 0
              }
            ],
            "measureScore": {
              "value": 0.0
            }
          }
        ],
        "evaluatedResource": [
          {
            "reference": "#c8691f84-3d73-4570-8211-5696411b3fe8"
          }
        ]
      },
      "request": {
        "method": "PUT",
        "url": "MeasureReport/measurereport-denom-EXM125-8.0.000-expectedresults"
      }
    },
    {
      "resource": {
        "resourceType": "Encounter",
        "id": "denom-EXM125-1",
        "meta": {
          "profile": [
            "http://hl7.org/fhir/us/core/StructureDefinition/us-core-encounter"
          ]
        },
        "status": "finished",
        "class": {
          "system": "http://terminology.hl7.org/CodeSystem/v3-ActCode",
          "code": "AMB",
          "display": "ambulatory"
        },
        "type": [
          {
            "coding": [
              {
                "system": "http://www.ama-assn.org/go/cpt",
                "code": "99201",
                "display": "Office or other outpatient visit for the evaluation and management of a new patient, which requires these 3 key components: A problem focused history; A problem focused examination; Straightforward medical decision making. Counseling and/or coordination of care with other physicians, other qualified health care professionals, or agencies are provided consistent with the nature of the problem(s) and the patient's and/or family's needs. Usually, the presenting problem(s) are self limited or minor. Typically, 10 minutes are spent face-to-face with the patient and/or family."
              }
            ]
          }
        ],
        "subject": {
          "reference": "Patient/denom-EXM125"
        },
        "period": {
          "start": "2019-05-31T00:00:00-00:00",
          "end": "2019-05-31T00:00:00-00:00"
        }
      },
      "request": {
        "method": "PUT",
        "url": "Encounter/denom-EXM125-1"
      }
    },
    {
      "resource": {
        "resourceType": "MeasureReport",
        "id": "measurereport-numer-EXM125-8.0.000-expectedresults",
        "contained": [
          {
            "resourceType": "Bundle",
            "id": "6105e8c0-8527-40a4-8e67-2e07f05f2f25",
            "type": "collection",
            "entry": [
              {
                "fullUrl": "Encounter/numer-EXM125-1",
                "resource": {
                  "resourceType": "Encounter",
                  "id": "numer-EXM125-1",
                  "meta": {
                    "versionId": "1",
                    "lastUpdated": "2020-01-29T16:25:20.948-07:00",
                    "profile": [
                      "http://hl7.org/fhir/us/core/StructureDefinition/us-core-encounter"
                    ]
                  },
                  "status": "finished",
                  "class": {
                    "system": "http://terminology.hl7.org/CodeSystem/v3-ActCode",
                    "code": "AMB",
                    "display": "ambulatory"
                  },
                  "type": [
                    {
                      "coding": [
                        {
                          "system": "http://www.ama-assn.org/go/cpt",
                          "code": "99201",
                          "display": "Office or other outpatient visit for the evaluation and management of a new patient, which requires these 3 key components: A problem focused history; A problem focused examination; Straightforward medical decision making. Counseling and/or coordination of care with other physicians, other qualified health care professionals, or agencies are provided consistent with the nature of the problem(s) and the patient's and/or family's needs. Usually, the presenting problem(s) are self limited or minor. Typically, 10 minutes are spent face-to-face with the patient and/or family."
                        }
                      ]
                    }
                  ],
                  "subject": {
                    "reference": "Patient/numer-EXM125"
                  },
                  "period": {
                    "start": "2019-05-31T00:00:00-00:00",
                    "end": "2019-05-31T00:00:00-00:00"
                  }
                }
              },
              {
                "fullUrl": "9a883f09-9212-4055-83c4-2343668699c5",
                "resource": {
                  "resourceType": "List",
                  "id": "9a883f09-9212-4055-83c4-2343668699c5",
                  "title": "denominator",
                  "entry": [
                    {
                      "item": {
                        "reference": "numer-EXM125-1"
                      }
                    },
                    {
                      "item": {
                        "reference": "numer-EXM125"
                      }
                    }
                  ]
                }
              },
              {
                "fullUrl": "8ef2d2ec-b60b-4b8a-a1dd-d7763b87684c",
                "resource": {
                  "resourceType": "List",
                  "id": "8ef2d2ec-b60b-4b8a-a1dd-d7763b87684c",
                  "title": "numerator",
                  "entry": [
                    {
                      "item": {
                        "reference": "numer-EXM125-3"
                      }
                    }
                  ]
                }
              },
              {
                "fullUrl": "Patient/numer-EXM125",
                "resource": {
                  "resourceType": "Patient",
                  "id": "numer-EXM125",
                  "meta": {
                    "versionId": "1",
                    "lastUpdated": "2020-01-29T16:25:20.948-07:00",
                    "profile": [
                      "http://hl7.org/fhir/us/core/StructureDefinition/us-core-patient"
                    ]
                  },
                  "text": {
                    "status": "generated",
                    "div": "<div xmlns=\"http://www.w3.org/1999/xhtml\"><div class=\"hapiHeaderText\">Karen <b>MCCARREN </b></div><table class=\"hapiPropertyTable\"><tbody><tr><td>Identifier</td><td>999999995</td></tr><tr><td>Date of birth</td><td><span>01 January 1965</span></td></tr></tbody></table></div>"
                  },
                  "extension": [
                    {
                      "url": "http://hl7.org/fhir/us/core/StructureDefinition/us-core-race",
                      "extension": [
                        {
                          "url": "ombCategory",
                          "valueCoding": {
                            "system": "urn:oid:2.16.840.1.113883.6.238",
                            "code": "2028-9",
                            "display": "Asian"
                          }
                        }
                      ]
                    },
                    {
                      "url": "http://hl7.org/fhir/us/core/StructureDefinition/us-core-ethnicity",
                      "extension": [
                        {
                          "url": "ombCategory",
                          "valueCoding": {
                            "system": "urn:oid:2.16.840.1.113883.6.238",
                            "code": "2135-2",
                            "display": "Hispanic or Latino"
                          }
                        }
                      ]
                    }
                  ],
                  "identifier": [
                    {
                      "use": "usual",
                      "type": {
                        "coding": [
                          {
                            "system": "http://terminology.hl7.org/CodeSystem/v2-0203",
                            "code": "MR",
                            "display": "Medical Record Number"
                          }
                        ]
                      },
                      "system": "http://hospital.smarthealthit.org",
                      "value": "999999995"
                    }
                  ],
                  "name": [
                    {
                      "family": "McCarren",
                      "given": [
                        "Karen"
                      ]
                    }
                  ],
                  "gender": "female",
                  "birthDate": "1965-01-01"
                }
              },
              {
                "fullUrl": "DiagnosticReport/numer-EXM125-3",
                "resource": {
                  "resourceType": "DiagnosticReport",
                  "id": "numer-EXM125-3",
                  "meta": {
                    "versionId": "1",
                    "lastUpdated": "2020-01-29T16:25:20.948-07:00",
                    "profile": [
                      "http://hl7.org/fhir/us/core/StructureDefinition/us-core-diagnosticreport-note"
                    ]
                  },
                  "text": {
                    "status": "generated",
                    "div": "<div xmlns=\"http://www.w3.org/1999/xhtml\"><div class=\"hapiHeaderText\"> MG Breast Diagnostic Limited Views </div><table class=\"hapiPropertyTable\"><tbody><tr><td>Status</td><td>FINAL</td></tr></tbody></table></div>"
                  },
                  "status": "final",
                  "code": {
                    "coding": [
                      {
                        "system": "http://loinc.org",
                        "code": "24604-1",
                        "display": "MG Breast Diagnostic Limited Views"
                      }
                    ]
                  },
                  "subject": {
                    "reference": "Patient/numer-EXM125"
                  },
                  "effectivePeriod": {
                    "start": "2018-05-30T00:00:00-00:00",
                    "end": "2018-11-30T00:00:00-00:00"
                  }
                }
              },
              {
                "fullUrl": "08fd841d-7baa-4d47-b7cd-6637d72ab97e",
                "resource": {
                  "resourceType": "List",
                  "id": "08fd841d-7baa-4d47-b7cd-6637d72ab97e",
                  "title": "initial-population",
                  "entry": [
                    {
                      "item": {
                        "reference": "numer-EXM125-1"
                      }
                    },
                    {
                      "item": {
                        "reference": "numer-EXM125"
                      }
                    }
                  ]
                }
              }
            ]
          }
        ],
        "status": "complete",
        "type": "individual",
        "measure": "Measure/measure-EXM125-8.0.000",
        "subject": {
          "reference": "Patient/numer-EXM125"
        },
        "period": {
          "start": "2018-12-31T17:00:00-07:00",
          "end": "2019-12-30T17:00:00-07:00"
        },
        "group": [
          {
            "id": "group-1",
            "population": [
              {
                "code": {
                  "coding": [
                    {
                      "system": "http://terminology.hl7.org/CodeSystem/measure-population",
                      "code": "initial-population",
                      "display": "Initial Population"
                    }
                  ]
                },
                "count": 1
              },
              {
                "code": {
                  "coding": [
                    {
                      "system": "http://terminology.hl7.org/CodeSystem/measure-population",
                      "code": "numerator",
                      "display": "Numerator"
                    }
                  ]
                },
                "count": 1
              },
              {
                "code": {
                  "coding": [
                    {
                      "system": "http://terminology.hl7.org/CodeSystem/measure-population",
                      "code": "denominator",
                      "display": "Denominator"
                    }
                  ]
                },
                "count": 1
              },
              {
                "code": {
                  "coding": [
                    {
                      "system": "http://terminology.hl7.org/CodeSystem/measure-population",
                      "code": "denominator-exclusion",
                      "display": "Denominator Exclusion"
                    }
                  ]
                },
                "count": 0
              }
            ],
            "measureScore": {
              "value": 1.0
            }
          }
        ],
        "evaluatedResource": [
          {
            "reference": "#6105e8c0-8527-40a4-8e67-2e07f05f2f25"
          }
        ]
      },
      "request": {
        "method": "PUT",
        "url": "MeasureReport/measurereport-numer-EXM125-8.0.000-expectedresults"
      }
    },
    {
      "resource": {
        "resourceType": "Library",
        "id": "library-Hospice-2.0.000",
        "text": {
          "status": "generated",
          "div": "<div xmlns=\"http://www.w3.org/1999/xhtml\"><table class=\"grid dict\"><tr><th scope=\"row\"><b>Id: </b></th><td style=\"padding-left: 25px; padding-right: 25px;\">library-Hospice-2.0.000</td></tr><tr><th scope=\"row\"><b>Type: </b></th><td style=\"padding-right: 25px;\"> logic-library </td></tr><tr><th scope=\"row\"><b>Version: </b></th><td style=\"padding-left: 25px; padding-right: 25px;\">2.0.000</td></tr><tr><th scope=\"row\"><b>Status: </b></th><td style=\"padding-left: 25px; padding-right: 25px;\">active</td></tr><tr style=\"vertical-align: top;\"><th rowspan=\"2\" scope=\"row\"><b>Related: </b></th><td style=\"padding-left: 25px; padding-right: 25px;\"><p style=\"margin-bottom: 5px;\"><b>type: </b><span>depends-on</span></p><p style=\"margin-bottom: 5px;\"><b>Resource: </b><br/><span>http://fhir.org/guides/dbcg/connectathon/Library/library-MATGlobalCommonFunctions|5.0.000</span></p></td></tr><tr style=\"vertical-align: top;\"><td style=\"padding-left: 25px; padding-right: 25px;\"><p style=\"margin-bottom: 5px;\"><b>type: </b><span>depends-on</span></p><p style=\"margin-bottom: 5px;\"><b>Resource: </b><br/><span>http://fhir.org/guides/dbcg/connectathon/Library/library-FHIRHelpers|4.0.1</span></p></td></tr><tr style=\"vertical-align: top;\"><th rowspan=\"3\" scope=\"row\"><b>Data Requirements: </b></th><td style=\"padding-left: 25px; padding-right: 25px;\"><div><p style=\"margin-bottom: 5px;\"><b>type: </b><span>Encounter</span></p><p style=\"margin-bottom: 5px;\"><b>code filter:</b><br/><span style=\"padding-left: 25px;\"><b>path: </b><span>type</span></span><br/><span style=\"padding-left: 25px;\"><b>valueset: </b><span>http://cts.nlm.nih.gov/fhir/ValueSet/2.16.840.1.113883.3.666.5.307</span></span></p></div></td></tr><tr style=\"vertical-align: top;\"><td style=\"padding-left: 25px; padding-right: 25px;\"><div><p style=\"margin-bottom: 5px;\"><b>type: </b><span>ServiceRequest</span></p><p style=\"margin-bottom: 5px;\"><b>code filter:</b><br/><span style=\"padding-left: 25px;\"><b>path: </b><span>code</span></span><br/><span style=\"padding-left: 25px;\"><b>valueset: </b><span>http://cts.nlm.nih.gov/fhir/ValueSet/2.16.840.1.113762.1.4.1108.15</span></span></p></div></td></tr><tr style=\"vertical-align: top;\"><td style=\"padding-left: 25px; padding-right: 25px;\"><div><p style=\"margin-bottom: 5px;\"><b>type: </b><span>Procedure</span></p><p style=\"margin-bottom: 5px;\"><b>code filter:</b><br/><span style=\"padding-left: 25px;\"><b>path: </b><span>code</span></span><br/><span style=\"padding-left: 25px;\"><b>valueset: </b><span>http://cts.nlm.nih.gov/fhir/ValueSet/2.16.840.1.113762.1.4.1108.15</span></span></p></div></td></tr><tr style=\"vertical-align: top;\"><th scope=\"row\"><b>Content: </b></th><td style=\"padding-left: 25px; padding-right: 25px;\"><b>type: </b><span>text/cql</span></td></tr><tr><td colspan=\"2\" style=\"padding-left: 25px; padding-right: 25px;\"><pre><code class=\"language-cql\">library Hospice version '2.0.000'\n\n/*\nThis example is a work in progress and should not be considered a final specification\nor recommendation for guidance. This example will help guide and direct the process\nof finding conventions and usage patterns that meet the needs of the various stakeholders\nin the measure development community.\n*/\n\n/*\n@update: @@BTR 2020-03-31 -&gt;\nIncremented version to 2.0.000\nUpdated FHIR version to 4.0.1\n@@@\n*/\n\nusing FHIR version '4.0.1'\n\ninclude MATGlobalCommonFunctions version '5.0.000' called Global\ninclude FHIRHelpers version '4.0.1' called FHIRHelpers\n\ncodesystem &quot;SNOMEDCT:2017-09&quot;: 'http://snomed.info/sct/731000124108' version 'http://snomed.info/sct/731000124108/version/201709'\n\nvalueset &quot;Encounter Inpatient&quot;: 'http://cts.nlm.nih.gov/fhir/ValueSet/2.16.840.1.113883.3.666.5.307'\nvalueset &quot;Hospice care ambulatory&quot;: 'http://cts.nlm.nih.gov/fhir/ValueSet/2.16.840.1.113762.1.4.1108.15'\n\ncode &quot;Discharge to healthcare facility for hospice care (procedure)&quot;: '428371000124100' from &quot;SNOMEDCT:2017-09&quot; display 'Discharge to healthcare facility for hospice care (procedure)'\ncode &quot;Discharge to home for hospice care (procedure)&quot;: '428361000124107' from &quot;SNOMEDCT:2017-09&quot; display 'Discharge to home for hospice care (procedure)'\n\nparameter &quot;Measurement Period&quot; Interval&lt;DateTime&gt;\n  default Interval[@2019-01-01T00:00:00.0, @2020-01-01T00:00:00.0)\n\ncontext Patient\n\ndefine &quot;Has Hospice&quot;:\n\texists (\n    [Encounter: &quot;Encounter Inpatient&quot;] DischargeHospice\n\t\t\twhere DischargeHospice.status = 'finished'\n\t\t    and (\n\t        DischargeHospice.hospitalization.dischargeDisposition ~ &quot;Discharge to home for hospice care (procedure)&quot;\n\t\t\t\t    or DischargeHospice.hospitalization.dischargeDisposition ~ &quot;Discharge to healthcare facility for hospice care (procedure)&quot;\n\t    \t)\n\t\t\t\tand DischargeHospice.period ends during &quot;Measurement Period&quot;\n\t)\n    or exists (\n      [ServiceRequest: &quot;Hospice care ambulatory&quot;] HospiceOrder\n        where HospiceOrder.intent = 'order'\n            and HospiceOrder.authoredOn in &quot;Measurement Period&quot;\n    )\n    or exists (\n      [Procedure: &quot;Hospice care ambulatory&quot;] HospicePerformed\n        where HospicePerformed.status = 'completed'\n          and Global.&quot;Normalize Interval&quot;(HospicePerformed.performed) overlaps &quot;Measurement Period&quot;\n    )\n</code></pre>\n                    \n                    \n                </td>\n            </tr>\n        \n    </table>\n</div>"
        },
        "contained": [
          {
            "resourceType": "Device",
            "id": "cqf-tooling",
            "meta": {
              "profile": [
                "http://hl7.org/fhir/us/cqfmeasures/StructureDefinition/device-softwaresystem-cqfm"
              ]
            },
            "type": {
              "coding": [
                {
                  "system": "http://hl7.org/fhir/us/cqfmeasures/CodeSystem/software-system-type",
                  "code": "tooling"
                }
              ]
            },
            "version": [
              {
                "value": "1.1.0-SNAPSHOT"
              }
            ]
          }
        ],
        "extension": [
          {
            "url": "http://hl7.org/fhir/us/cqfmeasures/StructureDefinition/cqfm-softwaresystem",
            "valueReference": {
              "reference": "#cqf-tooling"
            }
          }
        ],
        "version": "2.0.000",
        "name": "Hospice",
        "status": "active",
        "experimental": true,
        "type": {
          "coding": [
            {
              "system": "http://terminology.hl7.org/CodeSystem/library-type",
              "code": "logic-library"
            }
          ]
        },
        "relatedArtifact": [
          {
            "type": "depends-on",
            "resource": "http://fhir.org/guides/dbcg/connectathon/Library/library-MATGlobalCommonFunctions|5.0.000"
          },
          {
            "type": "depends-on",
            "resource": "http://fhir.org/guides/dbcg/connectathon/Library/library-FHIRHelpers|4.0.1"
          }
        ],
        "dataRequirement": [
          {
            "type": "Encounter",
            "profile": [
              "http://hl7.org/fhir/StructureDefinition/Encounter"
            ],
            "codeFilter": [
              {
                "path": "type",
                "valueSet": "http://cts.nlm.nih.gov/fhir/ValueSet/2.16.840.1.113883.3.666.5.307"
              }
            ]
          },
          {
            "type": "ServiceRequest",
            "profile": [
              "http://hl7.org/fhir/StructureDefinition/ServiceRequest"
            ],
            "codeFilter": [
              {
                "path": "code",
                "valueSet": "http://cts.nlm.nih.gov/fhir/ValueSet/2.16.840.1.113762.1.4.1108.15"
              }
            ]
          },
          {
            "type": "Procedure",
            "profile": [
              "http://hl7.org/fhir/StructureDefinition/Procedure"
            ],
            "codeFilter": [
              {
                "path": "code",
                "valueSet": "http://cts.nlm.nih.gov/fhir/ValueSet/2.16.840.1.113762.1.4.1108.15"
              }
            ]
          }
        ],
        "content": [
          {
            "contentType": "application/elm+xml",
            "data": ""
          },
          {
            "contentType": "text/cql",
            "data": ""
          }
        ]
      },
      "request": {
        "method": "PUT",
        "url": "Library/library-Hospice-2.0.000"
      }
    },
    {
      "resource": {
        "resourceType": "Library",
        "id": "library-EXM125-8.0.000",
        "text": {
          "status": "generated",
          "div": "<div xmlns=\"http://www.w3.org/1999/xhtml\"><table class=\"grid dict\"><tr><th scope=\"row\"><b>Id: </b></th><td style=\"padding-left: 25px; padding-right: 25px;\">library-EXM125-8.0.000</td></tr><tr><th scope=\"row\"><b>Type: </b></th><td style=\"padding-right: 25px;\"> logic-library </td></tr><tr><th scope=\"row\"><b>Version: </b></th><td style=\"padding-left: 25px; padding-right: 25px;\">8.0.000</td></tr><tr><th scope=\"row\"><b>Status: </b></th><td style=\"padding-left: 25px; padding-right: 25px;\">active</td></tr><tr style=\"vertical-align: top;\"><th rowspan=\"5\" scope=\"row\"><b>Related: </b></th><td style=\"padding-left: 25px; padding-right: 25px;\"><p style=\"margin-bottom: 5px;\"><b>type: </b><span>depends-on</span></p><p style=\"margin-bottom: 5px;\"><b>Resource: </b><br/><span>http://fhir.org/guides/dbcg/connectathon/Library/library-FHIRHelpers|4.0.1</span></p></td></tr><tr style=\"vertical-align: top;\"><td style=\"padding-left: 25px; padding-right: 25px;\"><p style=\"margin-bottom: 5px;\"><b>type: </b><span>depends-on</span></p><p style=\"margin-bottom: 5px;\"><b>Resource: </b><br/><span>http://fhir.org/guides/dbcg/connectathon/Library/library-Hospice|2.0.000</span></p></td></tr><tr style=\"vertical-align: top;\"><td style=\"padding-left: 25px; padding-right: 25px;\"><p style=\"margin-bottom: 5px;\"><b>type: </b><span>depends-on</span></p><p style=\"margin-bottom: 5px;\"><b>Resource: </b><br/><span>http://fhir.org/guides/dbcg/connectathon/Library/library-AdultOutpatientEncounters|2.0.000</span></p></td></tr><tr style=\"vertical-align: top;\"><td style=\"padding-left: 25px; padding-right: 25px;\"><p style=\"margin-bottom: 5px;\"><b>type: </b><span>depends-on</span></p><p style=\"margin-bottom: 5px;\"><b>Resource: </b><br/><span>http://fhir.org/guides/dbcg/connectathon/Library/library-MATGlobalCommonFunctions|5.0.000</span></p></td></tr><tr style=\"vertical-align: top;\"><td style=\"padding-left: 25px; padding-right: 25px;\"><p style=\"margin-bottom: 5px;\"><b>type: </b><span>depends-on</span></p><p style=\"margin-bottom: 5px;\"><b>Resource: </b><br/><span>http://fhir.org/guides/dbcg/connectathon/Library/library-SupplementalDataElements|2.0.0</span></p></td></tr><tr style=\"vertical-align: top;\"><th rowspan=\"8\" scope=\"row\"><b>Data Requirements: </b></th><td style=\"padding-left: 25px; padding-right: 25px;\"><div><p style=\"margin-bottom: 5px;\"><b>type: </b><span>Procedure</span></p><p style=\"margin-bottom: 5px;\"><b>code filter:</b><br/><span style=\"padding-left: 25px;\"><b>path: </b><span>code</span></span><br/><span style=\"padding-left: 25px;\"><b>valueset: </b><span>http://cts.nlm.nih.gov/fhir/ValueSet/2.16.840.1.113883.3.464.1003.198.12.1020</span></span></p></div></td></tr><tr style=\"vertical-align: top;\"><td style=\"padding-left: 25px; padding-right: 25px;\"><div><p style=\"margin-bottom: 5px;\"><b>type: </b><span>Condition</span></p><p style=\"margin-bottom: 5px;\"><b>code filter:</b><br/><span style=\"padding-left: 25px;\"><b>path: </b><span>code</span></span><br/><span style=\"padding-left: 25px;\"><b>valueset: </b><span>http://cts.nlm.nih.gov/fhir/ValueSet/2.16.840.1.113883.3.464.1003.198.12.1070</span></span></p></div></td></tr><tr style=\"vertical-align: top;\"><td style=\"padding-left: 25px; padding-right: 25px;\"><div><p style=\"margin-bottom: 5px;\"><b>type: </b><span>Condition</span></p><p style=\"margin-bottom: 5px;\"><b>code filter:</b><br/><span style=\"padding-left: 25px;\"><b>path: </b><span>code</span></span><br/><span style=\"padding-left: 25px;\"><b>valueset: </b><span>http://cts.nlm.nih.gov/fhir/ValueSet/2.16.840.1.113883.3.464.1003.198.12.1071</span></span></p></div></td></tr><tr style=\"vertical-align: top;\"><td style=\"padding-left: 25px; padding-right: 25px;\"><div><p style=\"margin-bottom: 5px;\"><b>type: </b><span>Condition</span></p><p style=\"margin-bottom: 5px;\"><b>code filter:</b><br/><span style=\"padding-left: 25px;\"><b>path: </b><span>code</span></span><br/><span style=\"padding-left: 25px;\"><b>valueset: </b><span>http://cts.nlm.nih.gov/fhir/ValueSet/2.16.840.1.113883.3.464.1003.198.12.1069</span></span></p></div></td></tr><tr style=\"vertical-align: top;\"><td style=\"padding-left: 25px; padding-right: 25px;\"><div><p style=\"margin-bottom: 5px;\"><b>type: </b><span>Condition</span></p><p style=\"margin-bottom: 5px;\"><b>code filter:</b><br/><span style=\"padding-left: 25px;\"><b>path: </b><span>code</span></span><br/><span style=\"padding-left: 25px;\"><b>valueset: </b><span>http://cts.nlm.nih.gov/fhir/ValueSet/2.16.840.1.113883.3.464.1003.198.12.1071</span></span></p></div></td></tr><tr style=\"vertical-align: top;\"><td style=\"padding-left: 25px; padding-right: 25px;\"><div><p style=\"margin-bottom: 5px;\"><b>type: </b><span>Condition</span></p><p style=\"margin-bottom: 5px;\"><b>code filter:</b><br/><span style=\"padding-left: 25px;\"><b>path: </b><span>code</span></span><br/><span style=\"padding-left: 25px;\"><b>valueset: </b><span>http://cts.nlm.nih.gov/fhir/ValueSet/2.16.840.1.113883.3.464.1003.198.12.1068</span></span></p></div></td></tr><tr style=\"vertical-align: top;\"><td style=\"padding-left: 25px; padding-right: 25px;\"><div><p style=\"margin-bottom: 5px;\"><b>type: </b><span>Procedure</span></p><p style=\"margin-bottom: 5px;\"><b>code filter:</b><br/><span style=\"padding-left: 25px;\"><b>path: </b><span>code</span></span><br/><span style=\"padding-left: 25px;\"><b>valueset: </b><span>http://cts.nlm.nih.gov/fhir/ValueSet/2.16.840.1.113883.3.464.1003.198.12.1005</span></span></p></div></td></tr><tr style=\"vertical-align: top;\"><td style=\"padding-left: 25px; padding-right: 25px;\"><div><p style=\"margin-bottom: 5px;\"><b>type: </b><span>DiagnosticReport</span></p><p style=\"margin-bottom: 5px;\"><b>code filter:</b><br/><span style=\"padding-left: 25px;\"><b>path: </b><span>code</span></span><br/><span style=\"padding-left: 25px;\"><b>valueset: </b><span>http://cts.nlm.nih.gov/fhir/ValueSet/2.16.840.1.113883.3.464.1003.108.12.1018</span></span></p></div></td></tr><tr style=\"vertical-align: top;\"><th scope=\"row\"><b>Content: </b></th><td style=\"padding-left: 25px; padding-right: 25px;\"><b>type: </b><span>text/cql</span></td></tr><tr><td colspan=\"2\" style=\"padding-left: 25px; padding-right: 25px;\"><pre><code class=\"language-cql\">library EXM125 version '8.0.000'\n\n/*\nBased on CMS125v7 - Breast Cancer Screening\n*/\n\n/*\nThis example is a work in progress and should not be considered a final specification\nor recommendation for guidance. This example will help guide and direct the process\nof finding conventions and usage patterns that meet the needs of the various stakeholders\nin the measure development community.\n*/\n\nusing FHIR version '4.0.1'\n\ninclude FHIRHelpers version '4.0.1' called FHIRHelpers\ninclude Hospice version '2.0.000' called Hospice\ninclude AdultOutpatientEncounters version '2.0.000' called AdultOutpatientEncounters\ninclude MATGlobalCommonFunctions version '5.0.000' called Global\ninclude SupplementalDataElements version '2.0.0' called SDE\n\nvalueset &quot;ONC Administrative Sex&quot;: 'http://cts.nlm.nih.gov/fhir/ValueSet/2.16.840.1.113762.1.4.1'\nvalueset &quot;Race&quot;: 'http://cts.nlm.nih.gov/fhir/ValueSet/2.16.840.1.114222.4.11.836'\nvalueset &quot;Ethnicity&quot;: 'http://cts.nlm.nih.gov/fhir/ValueSet/2.16.840.1.114222.4.11.837'\nvalueset &quot;Payer&quot;: 'http://cts.nlm.nih.gov/fhir/ValueSet/2.16.840.1.114222.4.11.3591'\nvalueset &quot;Bilateral Mastectomy&quot;: 'http://cts.nlm.nih.gov/fhir/ValueSet/2.16.840.1.113883.3.464.1003.198.12.1005'\nvalueset &quot;Female&quot;: 'http://cts.nlm.nih.gov/fhir/ValueSet/2.16.840.1.113883.3.560.100.2'\nvalueset &quot;Mammography&quot;: 'http://cts.nlm.nih.gov/fhir/ValueSet/2.16.840.1.113883.3.464.1003.108.12.1018'\nvalueset &quot;Unilateral Mastectomy&quot;: 'http://cts.nlm.nih.gov/fhir/ValueSet/2.16.840.1.113883.3.464.1003.198.12.1020'\nvalueset &quot;History of bilateral mastectomy&quot;: 'http://cts.nlm.nih.gov/fhir/ValueSet/2.16.840.1.113883.3.464.1003.198.12.1068'\nvalueset &quot;Status Post Left Mastectomy&quot;: 'http://cts.nlm.nih.gov/fhir/ValueSet/2.16.840.1.113883.3.464.1003.198.12.1069'\nvalueset &quot;Status Post Right Mastectomy&quot;: 'http://cts.nlm.nih.gov/fhir/ValueSet/2.16.840.1.113883.3.464.1003.198.12.1070'\nvalueset &quot;Left&quot;: 'http://cts.nlm.nih.gov/fhir/ValueSet/2.16.840.1.113883.3.464.1003.122.12.1036'\nvalueset &quot;Right&quot;: 'http://cts.nlm.nih.gov/fhir/ValueSet/2.16.840.1.113883.3.464.1003.122.12.1035'\nvalueset &quot;Unilateral Mastectomy, Unspecified Laterality&quot;: 'http://cts.nlm.nih.gov/fhir/ValueSet/2.16.840.1.113883.3.464.1003.198.12.1071'\n\nparameter &quot;Measurement Period&quot; Interval&lt;DateTime&gt;\n  default Interval[@2019-01-01T00:00:00.0, @2020-01-01T00:00:00.0)\n\ncontext Patient\n\ndefine &quot;SDE Ethnicity&quot;:\n  SDE.&quot;SDE Ethnicity&quot;\n\ndefine &quot;SDE Payer&quot;:\n  SDE.&quot;SDE Payer&quot;\n\ndefine &quot;SDE Race&quot;:\n  SDE.&quot;SDE Race&quot;\n\ndefine &quot;SDE Sex&quot;:\n  SDE.&quot;SDE Sex&quot;\n\ndefine &quot;Denominator&quot;:\n\t\t&quot;Initial Population&quot;\n\ndefine &quot;Unilateral Mastectomy Procedure&quot;:\n\t\t[Procedure: &quot;Unilateral Mastectomy&quot;] UnilateralMastectomyProcedure\n\t\t\t\twhere Global.&quot;Normalize Interval&quot;(UnilateralMastectomyProcedure.performed) ends before day of end of &quot;Measurement Period&quot;\n\t\t\t\t\t\tand UnilateralMastectomyProcedure.status = 'completed'\n\ndefine &quot;Right Mastectomy&quot;:\n\t\t(\n\t\t\t\t( [Condition: &quot;Status Post Right Mastectomy&quot;] C\n          where C.clinicalStatus ~ ToConcept(Global.&quot;active&quot;)\n        )\n\t\t\t\tunion (\n\t\t\t\t\t\t[Condition: &quot;Unilateral Mastectomy, Unspecified Laterality&quot;] UnilateralMastectomyDiagnosis\n\t\t\t\t\t\t\t\twhere UnilateralMastectomyDiagnosis.bodySite in &quot;Right&quot;\n                  and UnilateralMastectomyDiagnosis.clinicalStatus ~ ToConcept(Global.&quot;active&quot;)\n\t\t\t\t)\n\t\t) RightMastectomy\n\t\t\t\twhere Global.&quot;Normalize Interval&quot;(RightMastectomy.onset) starts before day of end of &quot;Measurement Period&quot;\n\ndefine &quot;Left Mastectomy&quot;:\n\t\t(\n\t\t    ( [Condition: &quot;Status Post Left Mastectomy&quot;] C\n          where C.clinicalStatus ~ ToConcept(Global.&quot;active&quot;)\n        )\n\t\t\t\tunion (\n\t\t\t\t\t\t[Condition: &quot;Unilateral Mastectomy, Unspecified Laterality&quot;] UnilateralMastectomyDiagnosis\n\t\t\t\t\t\t\t\twhere UnilateralMastectomyDiagnosis.bodySite in &quot;Left&quot;\n                  and UnilateralMastectomyDiagnosis.clinicalStatus ~ ToConcept(Global.&quot;active&quot;)\n\t\t\t\t)\n\t\t) LeftMastectomy\n\t\t\t\twhere Global.&quot;Normalize Interval&quot;(LeftMastectomy.onset) starts before day of end of &quot;Measurement Period&quot;\n\ndefine &quot;History Bilateral Mastectomy&quot;:\n\t\t[Condition: &quot;History of bilateral mastectomy&quot;] BilateralMastectomyHistory\n\t\t\t\twhere Global.&quot;Normalize Interval&quot;(BilateralMastectomyHistory.onset) starts before day of end of &quot;Measurement Period&quot;\n          and BilateralMastectomyHistory.clinicalStatus ~ ToConcept(Global.&quot;active&quot;)\n\ndefine &quot;Bilateral Mastectomy Procedure&quot;:\n\t\t[Procedure: &quot;Bilateral Mastectomy&quot;] BilateralMastectomyPerformed\n\t\t\t\twhere Global.&quot;Normalize Interval&quot;(BilateralMastectomyPerformed.performed) ends before day of end of &quot;Measurement Period&quot;\n\t\t\t\t\t\tand BilateralMastectomyPerformed.status = 'completed'\n\ndefine &quot;Numerator&quot;:\n\t\texists (\n\t\t\t\t[DiagnosticReport: &quot;Mammography&quot;] Mammogram\n\t\t\t\t\t\twhere ( Global.&quot;Normalize Interval&quot;(Mammogram.effective) ends 27 months or less before day of end of &quot;Measurement Period&quot; )\n\t\t\t\t\t\t\t\tand Mammogram.status in { 'final', 'amended', 'corrected', 'appended' }\n\t\t)\n\ndefine &quot;Denominator Exclusion&quot;:\n\t\tHospice.&quot;Has Hospice&quot;\n\t\t\t\tor ( Count(&quot;Unilateral Mastectomy Procedure&quot;) = 2 )\n\t\t\t\tor ( exists &quot;Right Mastectomy&quot; and exists &quot;Left Mastectomy&quot; )\n\t\t\t\tor exists &quot;History Bilateral Mastectomy&quot;\n\t\t\t\tor exists &quot;Bilateral Mastectomy Procedure&quot;\n\ndefine &quot;Initial Population&quot;:\n\t\tPatient.gender = 'female'\n\t\t\t\tand Global.&quot;CalendarAgeInYearsAt&quot;(FHIRHelpers.ToDate(Patient.birthDate), start of &quot;Measurement Period&quot;) in Interval[51, 74]\n\t\t\t\tand exists AdultOutpatientEncounters.&quot;Qualifying Encounters&quot;\n</code></pre>\n                    \n                    \n                </td>\n            </tr>\n        \n    </table>\n</div>"
        },
        "contained": [
          {
            "resourceType": "Device",
            "id": "cqf-tooling",
            "meta": {
              "profile": [
                "http://hl7.org/fhir/us/cqfmeasures/StructureDefinition/device-softwaresystem-cqfm"
              ]
            },
            "type": {
              "coding": [
                {
                  "system": "http://hl7.org/fhir/us/cqfmeasures/CodeSystem/software-system-type",
                  "code": "tooling"
                }
              ]
            },
            "version": [
              {
                "value": "1.1.0-SNAPSHOT"
              }
            ]
          }
        ],
        "extension": [
          {
            "url": "http://hl7.org/fhir/us/cqfmeasures/StructureDefinition/cqfm-softwaresystem",
            "valueReference": {
              "reference": "#cqf-tooling"
            }
          }
        ],
        "version": "8.0.000",
        "name": "EXM125",
        "url": "http://localhost/fhir/Library/EXM125|8.0.000",
        "status": "active",
        "experimental": true,
        "type": {
          "coding": [
            {
              "system": "http://terminology.hl7.org/CodeSystem/library-type",
              "code": "logic-library"
            }
          ]
        },
        "relatedArtifact": [
          {
            "type": "depends-on",
            "resource": "http://fhir.org/guides/dbcg/connectathon/Library/library-FHIRHelpers|4.0.1"
          },
          {
            "type": "depends-on",
            "resource": "http://fhir.org/guides/dbcg/connectathon/Library/library-Hospice|2.0.000"
          },
          {
            "type": "depends-on",
            "resource": "http://fhir.org/guides/dbcg/connectathon/Library/library-AdultOutpatientEncounters|2.0.000"
          },
          {
            "type": "depends-on",
            "resource": "http://fhir.org/guides/dbcg/connectathon/Library/library-MATGlobalCommonFunctions|5.0.000"
          },
          {
            "type": "depends-on",
            "resource": "http://fhir.org/guides/dbcg/connectathon/Library/library-SupplementalDataElements|2.0.0"
          }
        ],
        "dataRequirement": [
          {
            "type": "Procedure",
            "profile": [
              "http://hl7.org/fhir/StructureDefinition/Procedure"
            ],
            "codeFilter": [
              {
                "path": "code",
                "valueSet": "http://cts.nlm.nih.gov/fhir/ValueSet/2.16.840.1.113883.3.464.1003.198.12.1020"
              }
            ]
          },
          {
            "type": "Condition",
            "profile": [
              "http://hl7.org/fhir/StructureDefinition/Condition"
            ],
            "codeFilter": [
              {
                "path": "code",
                "valueSet": "http://cts.nlm.nih.gov/fhir/ValueSet/2.16.840.1.113883.3.464.1003.198.12.1070"
              }
            ]
          },
          {
            "type": "Condition",
            "profile": [
              "http://hl7.org/fhir/StructureDefinition/Condition"
            ],
            "codeFilter": [
              {
                "path": "code",
                "valueSet": "http://cts.nlm.nih.gov/fhir/ValueSet/2.16.840.1.113883.3.464.1003.198.12.1071"
              }
            ]
          },
          {
            "type": "Condition",
            "profile": [
              "http://hl7.org/fhir/StructureDefinition/Condition"
            ],
            "codeFilter": [
              {
                "path": "code",
                "valueSet": "http://cts.nlm.nih.gov/fhir/ValueSet/2.16.840.1.113883.3.464.1003.198.12.1069"
              }
            ]
          },
          {
            "type": "Condition",
            "profile": [
              "http://hl7.org/fhir/StructureDefinition/Condition"
            ],
            "codeFilter": [
              {
                "path": "code",
                "valueSet": "http://cts.nlm.nih.gov/fhir/ValueSet/2.16.840.1.113883.3.464.1003.198.12.1071"
              }
            ]
          },
          {
            "type": "Condition",
            "profile": [
              "http://hl7.org/fhir/StructureDefinition/Condition"
            ],
            "codeFilter": [
              {
                "path": "code",
                "valueSet": "http://cts.nlm.nih.gov/fhir/ValueSet/2.16.840.1.113883.3.464.1003.198.12.1068"
              }
            ]
          },
          {
            "type": "Procedure",
            "profile": [
              "http://hl7.org/fhir/StructureDefinition/Procedure"
            ],
            "codeFilter": [
              {
                "path": "code",
                "valueSet": "http://cts.nlm.nih.gov/fhir/ValueSet/2.16.840.1.113883.3.464.1003.198.12.1005"
              }
            ]
          },
          {
            "type": "DiagnosticReport",
            "profile": [
              "http://hl7.org/fhir/StructureDefinition/DiagnosticReport"
            ],
            "codeFilter": [
              {
                "path": "code",
                "valueSet": "http://cts.nlm.nih.gov/fhir/ValueSet/2.16.840.1.113883.3.464.1003.108.12.1018"
              }
            ]
          }
        ],
        "content": [
          {
            "contentType": "application/elm+xml",
            "data": ""
          },
          {
            "contentType": "text/cql",
            "data": ""
          }
        ]
      },
      "request": {
        "method": "PUT",
        "url": "Library/library-EXM125-8.0.000"
      }
    },
    {
      "resource": {
        "resourceType": "ValueSet",
        "id": "2.16.840.1.113883.3.464.1003.122.12.1035",
        "url": "http://cts.nlm.nih.gov/fhir/ValueSet/2.16.840.1.113883.3.464.1003.122.12.1035",
        "identifier": [
          {
            "system": "urn:ietf:rfc:3986",
            "value": "2.16.840.1.113883.3.464.1003.122.12.1035"
          }
        ],
        "version": "20171216",
        "name": "Right",
        "title": "Right",
        "status": "active",
        "publisher": "NLM",
        "compose": {
          "include": [
            {
              "system": "http://snomed.info/sct",
              "version": "2018-03",
              "concept": [
                {
                  "code": "24028007",
                  "display": "Right (qualifier value)"
                },
                {
                  "code": "419465000",
                  "display": "Unilateral right (qualifier value)"
                }
              ]
            }
          ]
        }
      },
      "request": {
        "method": "PUT",
        "url": "ValueSet/2.16.840.1.113883.3.464.1003.122.12.1035"
      }
    },
    {
      "resource": {
        "resourceType": "ValueSet",
        "id": "2.16.840.1.113883.3.464.1003.122.12.1036",
        "url": "http://cts.nlm.nih.gov/fhir/ValueSet/2.16.840.1.113883.3.464.1003.122.12.1036",
        "identifier": [
          {
            "system": "urn:ietf:rfc:3986",
            "value": "2.16.840.1.113883.3.464.1003.122.12.1036"
          }
        ],
        "version": "20171216",
        "name": "Left",
        "title": "Left",
        "status": "active",
        "publisher": "NLM",
        "compose": {
          "include": [
            {
              "system": "http://snomed.info/sct",
              "version": "2018-03",
              "concept": [
                {
                  "code": "419161000",
                  "display": "Unilateral left (qualifier value)"
                },
                {
                  "code": "7771000",
                  "display": "Left (qualifier value)"
                }
              ]
            }
          ]
        }
      },
      "request": {
        "method": "PUT",
        "url": "ValueSet/2.16.840.1.113883.3.464.1003.122.12.1036"
      }
    },
    {
      "resource": {
        "resourceType": "Patient",
        "id": "numer-EXM125",
        "meta": {
          "profile": [
            "http://hl7.org/fhir/us/core/StructureDefinition/us-core-patient"
          ]
        },
        "extension": [
          {
            "url": "http://hl7.org/fhir/us/core/StructureDefinition/us-core-race",
            "extension": [
              {
                "url": "ombCategory",
                "valueCoding": {
                  "system": "urn:oid:2.16.840.1.113883.6.238",
                  "code": "2028-9",
                  "display": "Asian"
                }
              }
            ]
          },
          {
            "url": "http://hl7.org/fhir/us/core/StructureDefinition/us-core-ethnicity",
            "extension": [
              {
                "url": "ombCategory",
                "valueCoding": {
                  "system": "urn:oid:2.16.840.1.113883.6.238",
                  "code": "2135-2",
                  "display": "Hispanic or Latino"
                }
              }
            ]
          }
        ],
        "identifier": [
          {
            "use": "usual",
            "type": {
              "coding": [
                {
                  "system": "http://terminology.hl7.org/CodeSystem/v2-0203",
                  "code": "MR",
                  "display": "Medical Record Number"
                }
              ]
            },
            "system": "http://hospital.smarthealthit.org",
            "value": "999999995"
          }
        ],
        "name": [
          {
            "family": "McCarren",
            "given": [
              "Karen"
            ]
          }
        ],
        "gender": "female",
        "birthDate": "1965-01-01"
      },
      "request": {
        "method": "PUT",
        "url": "Patient/numer-EXM125"
      }
    },
    {
      "resource": {
        "resourceType": "ValueSet",
        "id": "2.16.840.1.113883.3.464.1003.101.12.1025",
        "url": "http://cts.nlm.nih.gov/fhir/ValueSet/2.16.840.1.113883.3.464.1003.101.12.1025",
        "identifier": [
          {
            "system": "urn:ietf:rfc:3986",
            "value": "2.16.840.1.113883.3.464.1003.101.12.1025"
          }
        ],
        "version": "20170504",
        "name": "PreventiveCareServices-EstablishedOfficeVisit,18andUp",
        "title": "Preventive Care Services - Established Office Visit, 18 and Up",
        "status": "active",
        "publisher": "NLM",
        "compose": {
          "include": [
            {
              "system": "http://www.ama-assn.org/go/cpt",
              "version": "2018",
              "concept": [
                {
                  "code": "99395",
                  "display": "Periodic comprehensive preventive medicine reevaluation and management of an individual including an age and gender appropriate history, examination, counseling/anticipatory guidance/risk factor reduction interventions, and the ordering of laboratory/diagnostic procedures, established patient; 18-39 years"
                },
                {
                  "code": "99396",
                  "display": "Periodic comprehensive preventive medicine reevaluation and management of an individual including an age and gender appropriate history, examination, counseling/anticipatory guidance/risk factor reduction interventions, and the ordering of laboratory/diagnostic procedures, established patient; 40-64 years"
                },
                {
                  "code": "99397",
                  "display": "Periodic comprehensive preventive medicine reevaluation and management of an individual including an age and gender appropriate history, examination, counseling/anticipatory guidance/risk factor reduction interventions, and the ordering of laboratory/diagnostic procedures, established patient; 65 years and older"
                }
              ]
            }
          ]
        }
      },
      "request": {
        "method": "PUT",
        "url": "ValueSet/2.16.840.1.113883.3.464.1003.101.12.1025"
      }
    },
    {
      "resource": {
        "resourceType": "ValueSet",
        "id": "2.16.840.1.113883.3.464.1003.198.12.1070",
        "url": "http://cts.nlm.nih.gov/fhir/ValueSet/2.16.840.1.113883.3.464.1003.198.12.1070",
        "identifier": [
          {
            "system": "urn:ietf:rfc:3986",
            "value": "2.16.840.1.113883.3.464.1003.198.12.1070"
          }
        ],
        "version": "20171216",
        "name": "StatusPostRightMastectomy",
        "title": "Status Post Right Mastectomy",
        "status": "active",
        "publisher": "NLM",
        "compose": {
          "include": [
            {
              "system": "http://hl7.org/fhir/sid/icd-10",
              "version": "2019",
              "concept": [
                {
                  "code": "Z90.11",
                  "display": "Acquired absence of right breast and nipple"
                }
              ]
            },
            {
              "system": "http://snomed.info/sct",
              "version": "2018-03",
              "concept": [
                {
                  "code": "137681000119108",
                  "display": "History of prophylactic mastectomy of right breast (situation)"
                },
                {
                  "code": "429242008",
                  "display": "History of right mastectomy (situation)"
                }
              ]
            }
          ]
        }
      },
      "request": {
        "method": "PUT",
        "url": "ValueSet/2.16.840.1.113883.3.464.1003.198.12.1070"
      }
    },
    {
      "resource": {
        "resourceType": "ValueSet",
        "id": "2.16.840.1.113883.3.464.1003.198.12.1071",
        "url": "http://cts.nlm.nih.gov/fhir/ValueSet/2.16.840.1.113883.3.464.1003.198.12.1071",
        "identifier": [
          {
            "system": "urn:ietf:rfc:3986",
            "value": "2.16.840.1.113883.3.464.1003.198.12.1071"
          }
        ],
        "version": "20171216",
        "name": "UnilateralMastectomy,UnspecifiedLaterality",
        "title": "Unilateral Mastectomy, Unspecified Laterality",
        "status": "active",
        "publisher": "NLM",
        "compose": {
          "include": [
            {
              "system": "http://hl7.org/fhir/sid/icd-10",
              "version": "2019",
              "concept": [
                {
                  "code": "Z90.10",
                  "display": "Acquired absence of unspecified breast and nipple"
                }
              ]
            },
            {
              "system": "http://hl7.org/fhir/sid/icd-9-cm",
              "version": "2013",
              "concept": [
                {
                  "code": "V45.71",
                  "display": "Acquired absence of breast and nipple"
                }
              ]
            },
            {
              "system": "http://snomed.info/sct",
              "version": "2017-09",
              "concept": [
                {
                  "code": "22964006",
                  "display": "Unilateral simple mastectomy (situation)"
                },
                {
                  "code": "72269009",
                  "display": "Unilateral modified radical mastectomy (situation)"
                },
                {
                  "code": "73359007",
                  "display": "Unilateral mastectomy (situation)"
                },
                {
                  "code": "8115005",
                  "display": "Unilateral radical mastectomy (situation)"
                },
                {
                  "code": "88764002",
                  "display": "Unilateral extended simple mastectomy (situation)"
                }
              ]
            },
            {
              "system": "http://snomed.info/sct",
              "version": "2018-03",
              "concept": [
                {
                  "code": "248802009",
                  "display": "Absence of breast (finding)"
                }
              ]
            }
          ]
        }
      },
      "request": {
        "method": "PUT",
        "url": "ValueSet/2.16.840.1.113883.3.464.1003.198.12.1071"
      }
    },
    {
      "resource": {
        "resourceType": "ValueSet",
        "id": "2.16.840.1.113883.3.560.100.2",
        "url": "http://cts.nlm.nih.gov/fhir/ValueSet/2.16.840.1.113883.3.560.100.2",
        "identifier": [
          {
            "system": "urn:ietf:rfc:3986",
            "value": "2.16.840.1.113883.3.560.100.2"
          }
        ],
        "version": "20160331",
        "name": "Female",
        "title": "Female",
        "status": "active",
        "publisher": "NLM",
        "compose": {
          "include": [
            {
              "system": "http://hl7.org/fhir/v3/AdministrativeGender",
              "version": "HL7V3.0_2017-07",
              "concept": [
                {
                  "code": "F",
                  "display": "Female"
                }
              ]
            }
          ]
        }
      },
      "request": {
        "method": "PUT",
        "url": "ValueSet/2.16.840.1.113883.3.560.100.2"
      }
    },
    {
      "resource": {
        "resourceType": "ValueSet",
        "id": "2.16.840.1.113883.3.464.1003.101.12.1001",
        "url": "http://cts.nlm.nih.gov/fhir/ValueSet/2.16.840.1.113883.3.464.1003.101.12.1001",
        "identifier": [
          {
            "system": "urn:ietf:rfc:3986",
            "value": "2.16.840.1.113883.3.464.1003.101.12.1001"
          }
        ],
        "version": "20180310",
        "name": "OfficeVisit",
        "title": "Office Visit",
        "status": "active",
        "publisher": "NLM",
        "compose": {
          "include": [
            {
              "system": "http://www.ama-assn.org/go/cpt",
              "version": "2018",
              "concept": [
                {
                  "code": "99201",
                  "display": "Office or other outpatient visit for the evaluation and management of a new patient, which requires these 3 key components: A problem focused history; A problem focused examination; Straightforward medical decision making. Counseling and/or coordination of care with other physicians, other qualified health care professionals, or agencies are provided consistent with the nature of the problem(s) and the patient's and/or family's needs. Usually, the presenting problem(s) are self limited or minor. Typically, 10 minutes are spent face-to-face with the patient and/or family."
                },
                {
                  "code": "99202",
                  "display": "Office or other outpatient visit for the evaluation and management of a new patient, which requires these 3 key components: An expanded problem focused history; An expanded problem focused examination; Straightforward medical decision making. Counseling and/or coordination of care with other physicians, other qualified health care professionals, or agencies are provided consistent with the nature of the problem(s) and the patient's and/or family's needs. Usually, the presenting problem(s) are of low to moderate severity. Typically, 20 minutes are spent face-to-face with the patient and/or family."
                },
                {
                  "code": "99203",
                  "display": "Office or other outpatient visit for the evaluation and management of a new patient, which requires these 3 key components: A detailed history; A detailed examination; Medical decision making of low complexity. Counseling and/or coordination of care with other physicians, other qualified health care professionals, or agencies are provided consistent with the nature of the problem(s) and the patient's and/or family's needs. Usually, the presenting problem(s) are of moderate severity. Typically, 30 minutes are spent face-to-face with the patient and/or family."
                },
                {
                  "code": "99204",
                  "display": "Office or other outpatient visit for the evaluation and management of a new patient, which requires these 3 key components: A comprehensive history; A comprehensive examination; Medical decision making of moderate complexity. Counseling and/or coordination of care with other physicians, other qualified health care professionals, or agencies are provided consistent with the nature of the problem(s) and the patient's and/or family's needs. Usually, the presenting problem(s) are of moderate to high severity. Typically, 45 minutes are spent face-to-face with the patient and/or family."
                },
                {
                  "code": "99205",
                  "display": "Office or other outpatient visit for the evaluation and management of a new patient, which requires these 3 key components: A comprehensive history; A comprehensive examination; Medical decision making of high complexity. Counseling and/or coordination of care with other physicians, other qualified health care professionals, or agencies are provided consistent with the nature of the problem(s) and the patient's and/or family's needs. Usually, the presenting problem(s) are of moderate to high severity. Typically, 60 minutes are spent face-to-face with the patient and/or family."
                },
                {
                  "code": "99212",
                  "display": "Office or other outpatient visit for the evaluation and management of an established patient, which requires at least 2 of these 3 key components: A problem focused history; A problem focused examination; Straightforward medical decision making. Counseling and/or coordination of care with other physicians, other qualified health care professionals, or agencies are provided consistent with the nature of the problem(s) and the patient's and/or family's needs. Usually, the presenting problem(s) are self limited or minor. Typically, 10 minutes are spent face-to-face with the patient and/or family."
                },
                {
                  "code": "99213",
                  "display": "Office or other outpatient visit for the evaluation and management of an established patient, which requires at least 2 of these 3 key components: An expanded problem focused history; An expanded problem focused examination; Medical decision making of low complexity. Counseling and coordination of care with other physicians, other qualified health care professionals, or agencies are provided consistent with the nature of the problem(s) and the patient's and/or family's needs. Usually, the presenting problem(s) are of low to moderate severity. Typically, 15 minutes are spent face-to-face with the patient and/or family."
                },
                {
                  "code": "99214",
                  "display": "Office or other outpatient visit for the evaluation and management of an established patient, which requires at least 2 of these 3 key components: A detailed history; A detailed examination; Medical decision making of moderate complexity. Counseling and/or coordination of care with other physicians, other qualified health care professionals, or agencies are provided consistent with the nature of the problem(s) and the patient's and/or family's needs. Usually, the presenting problem(s) are of moderate to high severity. Typically, 25 minutes are spent face-to-face with the patient and/or family."
                },
                {
                  "code": "99215",
                  "display": "Office or other outpatient visit for the evaluation and management of an established patient, which requires at least 2 of these 3 key components: A comprehensive history; A comprehensive examination; Medical decision making of high complexity. Counseling and/or coordination of care with other physicians, other qualified health care professionals, or agencies are provided consistent with the nature of the problem(s) and the patient's and/or family's needs. Usually, the presenting problem(s) are of moderate to high severity. Typically, 40 minutes are spent face-to-face with the patient and/or family."
                }
              ]
            },
            {
              "system": "http://snomed.info/sct",
              "version": "2018-03",
              "concept": [
                {
                  "code": "185463005",
                  "display": "Visit out of hours (procedure)"
                },
                {
                  "code": "185464004",
                  "display": "Out of hours visit - not night visit (procedure)"
                },
                {
                  "code": "185465003",
                  "display": "Weekend visit (procedure)"
                },
                {
                  "code": "30346009",
                  "display": "Evaluation and management of established outpatient in office or other outpatient facility (procedure)"
                },
                {
                  "code": "3391000175108",
                  "display": "Office visit for pediatric care and assessment (procedure)"
                },
                {
                  "code": "37894004",
                  "display": "Evaluation and management of new outpatient in office or other outpatient facility (procedure)"
                },
                {
                  "code": "439740005",
                  "display": "Postoperative follow-up visit (procedure)"
                }
              ]
            }
          ]
        }
      },
      "request": {
        "method": "PUT",
        "url": "ValueSet/2.16.840.1.113883.3.464.1003.101.12.1001"
      }
    },
    {
      "resource": {
        "resourceType": "ValueSet",
        "id": "2.16.840.1.113883.3.464.1003.101.12.1023",
        "url": "http://cts.nlm.nih.gov/fhir/ValueSet/2.16.840.1.113883.3.464.1003.101.12.1023",
        "identifier": [
          {
            "system": "urn:ietf:rfc:3986",
            "value": "2.16.840.1.113883.3.464.1003.101.12.1023"
          }
        ],
        "version": "20170504",
        "name": "PreventiveCareServices-InitialOfficeVisit,18andUp",
        "title": "Preventive Care Services-Initial Office Visit, 18 and Up",
        "status": "active",
        "publisher": "NLM",
        "compose": {
          "include": [
            {
              "system": "http://www.ama-assn.org/go/cpt",
              "version": "2018",
              "concept": [
                {
                  "code": "99385",
                  "display": "Initial comprehensive preventive medicine evaluation and management of an individual including an age and gender appropriate history, examination, counseling/anticipatory guidance/risk factor reduction interventions, and the ordering of laboratory/diagnostic procedures, new patient; 18-39 years"
                },
                {
                  "code": "99386",
                  "display": "Initial comprehensive preventive medicine evaluation and management of an individual including an age and gender appropriate history, examination, counseling/anticipatory guidance/risk factor reduction interventions, and the ordering of laboratory/diagnostic procedures, new patient; 40-64 years"
                },
                {
                  "code": "99387",
                  "display": "Initial comprehensive preventive medicine evaluation and management of an individual including an age and gender appropriate history, examination, counseling/anticipatory guidance/risk factor reduction interventions, and the ordering of laboratory/diagnostic procedures, new patient; 65 years and older"
                }
              ]
            }
          ]
        }
      },
      "request": {
        "method": "PUT",
        "url": "ValueSet/2.16.840.1.113883.3.464.1003.101.12.1023"
      }
    },
    {
      "resource": {
        "resourceType": "ValueSet",
        "id": "2.16.840.1.113762.1.4.1111.143",
        "url": "http://cts.nlm.nih.gov/fhir/ValueSet/2.16.840.1.113762.1.4.1111.143",
        "title": "Observation Services",
        "status": "active",
        "publisher": "The Joint Commission",
        "compose": {
          "include": [
            {
              "system": "http://snomed.info/sct",
              "version": "2019-09",
              "concept": [
                {
                  "code": "448851000124103",
                  "display": "Hospital admission from observation unit (procedure)"
                },
                {
                  "code": "448951000124107",
                  "display": "Admission to observation unit (procedure)"
                },
                {
                  "code": "76464004",
                  "display": "Hospital admission, for observation (procedure)"
                }
              ]
            }
          ]
        }
      },
      "request": {
        "method": "PUT",
        "url": "ValueSet/2.16.840.1.113762.1.4.1111.143"
      }
    },
    {
      "resource": {
        "resourceType": "Library",
        "id": "library-SupplementalDataElements-2.0.0",
        "text": {
          "status": "generated",
          "div": "<div xmlns=\"http://www.w3.org/1999/xhtml\"><table class=\"grid dict\"><tr><th scope=\"row\"><b>Id: </b></th><td style=\"padding-left: 25px; padding-right: 25px;\">library-SupplementalDataElements-2.0.0</td></tr><tr><th scope=\"row\"><b>Type: </b></th><td style=\"padding-right: 25px;\"> logic-library </td></tr><tr><th scope=\"row\"><b>Version: </b></th><td style=\"padding-left: 25px; padding-right: 25px;\">2.0.0</td></tr><tr><th scope=\"row\"><b>Status: </b></th><td style=\"padding-left: 25px; padding-right: 25px;\">active</td></tr><tr style=\"vertical-align: top;\"><th rowspan=\"1\" scope=\"row\"><b>Related: </b></th><td style=\"padding-left: 25px; padding-right: 25px;\"><p style=\"margin-bottom: 5px;\"><b>type: </b><span>depends-on</span></p><p style=\"margin-bottom: 5px;\"><b>Resource: </b><br/><span>http://fhir.org/guides/dbcg/connectathon/Library/library-FHIRHelpers|4.0.1</span></p></td></tr><tr style=\"vertical-align: top;\"><th rowspan=\"1\" scope=\"row\"><b>Data Requirements: </b></th><td style=\"padding-left: 25px; padding-right: 25px;\"><div><p style=\"margin-bottom: 5px;\"><b>type: </b><span>Coverage</span></p><p style=\"margin-bottom: 5px;\"><b>code filter:</b><br/><span style=\"padding-left: 25px;\"><b>path: </b><span>type</span></span><br/><span style=\"padding-left: 25px;\"><b>valueset: </b><span>http://cts.nlm.nih.gov/fhir/ValueSet/2.16.840.1.114222.4.11.3591</span></span></p></div></td></tr><tr style=\"vertical-align: top;\"><th scope=\"row\"><b>Content: </b></th><td style=\"padding-left: 25px; padding-right: 25px;\"><b>type: </b><span>text/cql</span></td></tr><tr><td colspan=\"2\" style=\"padding-left: 25px; padding-right: 25px;\"><pre><code class=\"language-cql\">library SupplementalDataElements version '2.0.0'\n\nusing FHIR version '4.0.1'\n\ninclude FHIRHelpers version '4.0.1' called FHIRHelpers\n\nvalueset &quot;ONC Administrative Sex&quot;: 'http://cts.nlm.nih.gov/fhir/ValueSet/2.16.840.1.113762.1.4.1'\nvalueset &quot;Race&quot;: 'http://cts.nlm.nih.gov/fhir/ValueSet/2.16.840.1.114222.4.11.836'\nvalueset &quot;Ethnicity&quot;: 'http://cts.nlm.nih.gov/fhir/ValueSet/2.16.840.1.114222.4.11.837'\nvalueset &quot;Payer&quot;: 'http://cts.nlm.nih.gov/fhir/ValueSet/2.16.840.1.114222.4.11.3591'\n\ncontext Patient\n\ndefine &quot;SDE Ethnicity&quot;:\n  (flatten (\n    Patient.extension Extension\n      where Extension.url = 'http://hl7.org/fhir/us/core/StructureDefinition/us-core-ethnicity'\n        return Extension.extension\n  )) E\n    where E.url = 'ombCategory'\n      or E.url = 'detailed'\n    return E.value as Coding\n\ndefine &quot;SDE Payer&quot;:\n    [Coverage: type in &quot;Payer&quot;] Payer\n      return {\n        code: Payer.type,\n        period: Payer.period\n      }\n\ndefine &quot;SDE Race&quot;:\n  (flatten (\n    Patient.extension Extension\n      where Extension.url = 'http://hl7.org/fhir/us/core/StructureDefinition/us-core-race'\n        return Extension.extension\n  )) E\n    where E.url = 'ombCategory'\n      or E.url = 'detailed'\n    return E.value as Coding\n\ndefine &quot;SDE Sex&quot;:\n  case\n    when Patient.gender = 'male' then Code { code: 'M', system: 'http://hl7.org/fhir/v3/AdministrativeGender', display: 'Male' }\n    when Patient.gender = 'female' then Code { code: 'F', system: 'http://hl7.org/fhir/v3/AdministrativeGender', display: 'Female' }\n    else null\n  end\n</code></pre>\n                    \n                    \n                </td>\n            </tr>\n        \n    </table>\n</div>"
        },
        "contained": [
          {
            "resourceType": "Device",
            "id": "cqf-tooling",
            "meta": {
              "profile": [
                "http://hl7.org/fhir/us/cqfmeasures/StructureDefinition/device-softwaresystem-cqfm"
              ]
            },
            "type": {
              "coding": [
                {
                  "system": "http://hl7.org/fhir/us/cqfmeasures/CodeSystem/software-system-type",
                  "code": "tooling"
                }
              ]
            },
            "version": [
              {
                "value": "1.1.0-SNAPSHOT"
              }
            ]
          }
        ],
        "extension": [
          {
            "url": "http://hl7.org/fhir/us/cqfmeasures/StructureDefinition/cqfm-softwaresystem",
            "valueReference": {
              "reference": "#cqf-tooling"
            }
          }
        ],
        "version": "2.0.0",
        "name": "SupplementalDataElements",
        "status": "active",
        "experimental": true,
        "type": {
          "coding": [
            {
              "system": "http://terminology.hl7.org/CodeSystem/library-type",
              "code": "logic-library"
            }
          ]
        },
        "relatedArtifact": [
          {
            "type": "depends-on",
            "resource": "http://fhir.org/guides/dbcg/connectathon/Library/library-FHIRHelpers|4.0.1"
          }
        ],
        "dataRequirement": [
          {
            "type": "Coverage",
            "profile": [
              "http://hl7.org/fhir/StructureDefinition/Coverage"
            ],
            "codeFilter": [
              {
                "path": "type",
                "valueSet": "http://cts.nlm.nih.gov/fhir/ValueSet/2.16.840.1.114222.4.11.3591"
              }
            ]
          }
        ],
        "content": [
          {
            "contentType": "application/elm+xml",
            "data": ""
          },
          {
            "contentType": "text/cql",
            "data": ""
          }
        ]
      },
      "request": {
        "method": "PUT",
        "url": "Library/library-SupplementalDataElements-2.0.0"
      }
    },
    {
      "resource": {
        "resourceType": "DiagnosticReport",
        "id": "numer-EXM125-3",
        "meta": {
          "profile": [
            "http://hl7.org/fhir/us/core/StructureDefinition/us-core-diagnosticreport-note"
          ]
        },
        "status": "final",
        "code": {
          "coding": [
            {
              "system": "http://loinc.org",
              "code": "24604-1",
              "display": "MG Breast Diagnostic Limited Views"
            }
          ]
        },
        "subject": {
          "reference": "Patient/numer-EXM125"
        },
        "effectivePeriod": {
          "start": "2018-05-30T00:00:00-00:00",
          "end": "2018-11-30T00:00:00-00:00"
        }
      },
      "request": {
        "method": "PUT",
        "url": "DiagnosticReport/numer-EXM125-3"
      }
    },
    {
      "resource": {
        "resourceType": "ValueSet",
        "id": "2.16.840.1.113762.1.4.1",
        "url": "http://cts.nlm.nih.gov/fhir/ValueSet/2.16.840.1.113762.1.4.1",
        "identifier": [
          {
            "system": "urn:ietf:rfc:3986",
            "value": "2.16.840.1.113762.1.4.1"
          }
        ],
        "version": "20150331",
        "name": "ONCAdministrativeSex",
        "title": "ONC Administrative Sex",
        "status": "active",
        "publisher": "NLM",
        "compose": {
          "include": [
            {
              "system": "http://hl7.org/fhir/v3/AdministrativeGender",
              "version": "HL7V3.0_2017-07",
              "concept": [
                {
                  "code": "F",
                  "display": "Female"
                },
                {
                  "code": "M",
                  "display": "Male"
                }
              ]
            }
          ]
        }
      },
      "request": {
        "method": "PUT",
        "url": "ValueSet/2.16.840.1.113762.1.4.1"
      }
    },
    {
      "resource": {
        "resourceType": "ValueSet",
        "id": "2.16.840.1.113883.3.526.3.1240",
        "url": "http://cts.nlm.nih.gov/fhir/ValueSet/2.16.840.1.113883.3.526.3.1240",
        "identifier": [
          {
            "system": "urn:ietf:rfc:3986",
            "value": "2.16.840.1.113883.3.526.3.1240"
          }
        ],
        "version": "20170504",
        "name": "AnnualWellnessVisit",
        "title": "Annual Wellness Visit",
        "status": "active",
        "publisher": "NLM",
        "compose": {
          "include": [
            {
              "system": "https://www.cms.gov/Medicare/Coding/MedHCPCSGenInfo/index.html",
              "version": "2018",
              "concept": [
                {
                  "code": "G0438",
                  "display": "Annual wellness visit; includes a personalized prevention plan of service (pps), initial visit"
                },
                {
                  "code": "G0439",
                  "display": "Annual wellness visit, includes a personalized prevention plan of service (pps), subsequent visit"
                }
              ]
            }
          ]
        }
      },
      "request": {
        "method": "PUT",
        "url": "ValueSet/2.16.840.1.113883.3.526.3.1240"
      }
    },
    {
      "resource": {
        "resourceType": "DiagnosticReport",
        "id": "denom-EXM125-3",
        "meta": {
          "profile": [
            "http://hl7.org/fhir/us/core/StructureDefinition/us-core-diagnosticreport-note"
          ]
        },
        "status": "final",
        "code": {
          "coding": [
            {
              "system": "http://loinc.org",
              "code": "24604-1",
              "display": "MG Breast Diagnostic Limited Views"
            }
          ]
        },
        "subject": {
          "reference": "Patient/denom-EXM125"
        },
        "effectivePeriod": {
          "start": "2016-11-01T00:00:00",
          "end": "2016-11-01T00:00:00"
        }
      },
      "request": {
        "method": "PUT",
        "url": "DiagnosticReport/denom-EXM125-3"
      }
    },
    {
      "resource": {
        "resourceType": "Encounter",
        "id": "numer-EXM125-1",
        "meta": {
          "profile": [
            "http://hl7.org/fhir/us/core/StructureDefinition/us-core-encounter"
          ]
        },
        "status": "finished",
        "class": {
          "system": "http://terminology.hl7.org/CodeSystem/v3-ActCode",
          "code": "AMB",
          "display": "ambulatory"
        },
        "type": [
          {
            "coding": [
              {
                "system": "http://www.ama-assn.org/go/cpt",
                "code": "99201",
                "display": "Office or other outpatient visit for the evaluation and management of a new patient, which requires these 3 key components: A problem focused history; A problem focused examination; Straightforward medical decision making. Counseling and/or coordination of care with other physicians, other qualified health care professionals, or agencies are provided consistent with the nature of the problem(s) and the patient's and/or family's needs. Usually, the presenting problem(s) are self limited or minor. Typically, 10 minutes are spent face-to-face with the patient and/or family."
              }
            ]
          }
        ],
        "subject": {
          "reference": "Patient/numer-EXM125"
        },
        "period": {
          "start": "2019-05-31T00:00:00-00:00",
          "end": "2019-05-31T00:00:00-00:00"
        }
      },
      "request": {
        "method": "PUT",
        "url": "Encounter/numer-EXM125-1"
      }
    },
    {
      "resource": {
        "resourceType": "Patient",
        "id": "denom-EXM125",
        "meta": {
          "profile": [
            "http://hl7.org/fhir/us/core/StructureDefinition/us-core-patient"
          ]
        },
        "extension": [
          {
            "url": "http://hl7.org/fhir/us/core/StructureDefinition/us-core-race",
            "extension": [
              {
                "url": "ombCategory",
                "valueCoding": {
                  "system": "urn:oid:2.16.840.1.113883.6.238",
                  "code": "2028-9",
                  "display": "Asian"
                }
              }
            ]
          },
          {
            "url": "http://hl7.org/fhir/us/core/StructureDefinition/us-core-ethnicity",
            "extension": [
              {
                "url": "ombCategory",
                "valueCoding": {
                  "system": "urn:oid:2.16.840.1.113883.6.238",
                  "code": "2135-2",
                  "display": "Hispanic or Latino"
                }
              }
            ]
          }
        ],
        "identifier": [
          {
            "use": "usual",
            "type": {
              "coding": [
                {
                  "system": "http://terminology.hl7.org/CodeSystem/v2-0203",
                  "code": "MR",
                  "display": "Medical Record Number"
                }
              ]
            },
            "system": "http://hospital.smarthealthit.org",
            "value": "999999995"
          }
        ],
        "name": [
          {
            "family": "Dunn",
            "given": [
              "Dorothy"
            ]
          }
        ],
        "gender": "female",
        "birthDate": "1965-01-01"
      },
      "request": {
        "method": "PUT",
        "url": "Patient/denom-EXM125"
      }
    },
    {
      "resource": {
        "resourceType": "ValueSet",
        "id": "2.16.840.1.113762.1.4.1108.15",
        "url": "http://cts.nlm.nih.gov/fhir/ValueSet/2.16.840.1.113762.1.4.1108.15",
        "identifier": [
          {
            "system": "urn:ietf:rfc:3986",
            "value": "2.16.840.1.113762.1.4.1108.15"
          }
        ],
        "version": "20170504",
        "name": "Hospicecareambulatory",
        "title": "Hospice care ambulatory",
        "status": "active",
        "publisher": "NLM",
        "compose": {
          "include": [
            {
              "system": "http://snomed.info/sct",
              "version": "2018-03",
              "concept": [
                {
                  "code": "385763009",
                  "display": "Hospice care (regime/therapy)"
                },
                {
                  "code": "385765002",
                  "display": "Hospice care management (procedure)"
                }
              ]
            }
          ]
        }
      },
      "request": {
        "method": "PUT",
        "url": "ValueSet/2.16.840.1.113762.1.4.1108.15"
      }
    },
    {
      "resource": {
        "resourceType": "ValueSet",
        "id": "2.16.840.1.114222.4.11.3591",
        "url": "http://cts.nlm.nih.gov/fhir/ValueSet/2.16.840.1.114222.4.11.3591",
        "identifier": [
          {
            "system": "urn:ietf:rfc:3986",
            "value": "2.16.840.1.114222.4.11.3591"
          }
        ],
        "version": "20180718",
        "name": "Payer",
        "title": "Payer",
        "status": "active",
        "publisher": "NLM",
        "compose": {
          "include": [
            {
              "system": "http://www.phdsc.org/standards/pdfs/SourceofPaymentTypologyVersion6FINALSeptember2015.pdf",
              "version": "8.0",
              "concept": [
                {
                  "code": "1",
                  "display": "MEDICARE"
                },
                {
                  "code": "11",
                  "display": "Medicare (Managed Care)"
                },
                {
                  "code": "111",
                  "display": "Medicare HMO"
                },
                {
                  "code": "112",
                  "display": "Medicare PPO"
                },
                {
                  "code": "113",
                  "display": "Medicare POS"
                },
                {
                  "code": "119",
                  "display": "Medicare Managed Care Other"
                },
                {
                  "code": "12",
                  "display": "Medicare (Non-managed Care)"
                },
                {
                  "code": "121",
                  "display": "Medicare FFS"
                },
                {
                  "code": "122",
                  "display": "Medicare Drug Benefit"
                },
                {
                  "code": "123",
                  "display": "Medicare Medical Savings Account (MSA)"
                },
                {
                  "code": "129",
                  "display": "Medicare Non-managed Care Other"
                },
                {
                  "code": "13",
                  "display": "Medicare Hospice"
                },
                {
                  "code": "14",
                  "display": "Dual Eligibility Medicare/Medicaid Organization"
                },
                {
                  "code": "19",
                  "display": "Medicare Other"
                },
                {
                  "code": "191",
                  "display": "Medicare Pharmacy Benefit Manager"
                },
                {
                  "code": "2",
                  "display": "MEDICAID"
                },
                {
                  "code": "21",
                  "display": "Medicaid (Managed Care)"
                },
                {
                  "code": "211",
                  "display": "Medicaid HMO"
                },
                {
                  "code": "212",
                  "display": "Medicaid PPO"
                },
                {
                  "code": "213",
                  "display": "Medicaid PCCM (Primary Care Case Management)"
                },
                {
                  "code": "219",
                  "display": "Medicaid Managed Care Other"
                },
                {
                  "code": "22",
                  "display": "Medicaid (Non-managed Care Plan)"
                },
                {
                  "code": "23",
                  "display": "Medicaid/SCHIP"
                },
                {
                  "code": "25",
                  "display": "Medicaid - Out of State"
                },
                {
                  "code": "26",
                  "display": "Medicaid -- Long Term Care"
                },
                {
                  "code": "29",
                  "display": "Medicaid Other"
                },
                {
                  "code": "291",
                  "display": "Medicaid Pharmacy Benefit Manager"
                },
                {
                  "code": "299",
                  "display": "Medicaid - Dental"
                },
                {
                  "code": "3",
                  "display": "OTHER GOVERNMENT (Federal/State/Local) (excluding Department of Corrections)"
                },
                {
                  "code": "31",
                  "display": "Department of Defense"
                },
                {
                  "code": "311",
                  "display": "TRICARE (CHAMPUS)"
                },
                {
                  "code": "3111",
                  "display": "TRICARE Prime--HMO"
                },
                {
                  "code": "3112",
                  "display": "TRICARE Extra--PPO"
                },
                {
                  "code": "3113",
                  "display": "TRICARE Standard - Fee For Service"
                },
                {
                  "code": "3114",
                  "display": "TRICARE For Life--Medicare Supplement"
                },
                {
                  "code": "3115",
                  "display": "TRICARE Reserve Select"
                },
                {
                  "code": "3116",
                  "display": "Uniformed Services Family Health Plan (USFHP) -- HMO"
                },
                {
                  "code": "3119",
                  "display": "Department of Defense - (other)"
                },
                {
                  "code": "312",
                  "display": "Military Treatment Facility"
                },
                {
                  "code": "3121",
                  "display": "Enrolled Prime--HMO"
                },
                {
                  "code": "3122",
                  "display": "Non-enrolled Space Available"
                },
                {
                  "code": "3123",
                  "display": "TRICARE For Life (TFL)"
                },
                {
                  "code": "313",
                  "display": "Dental --Stand Alone"
                },
                {
                  "code": "32",
                  "display": "Department of Veterans Affairs"
                },
                {
                  "code": "321",
                  "display": "Veteran care--Care provided to Veterans"
                },
                {
                  "code": "3211",
                  "display": "Direct Care--Care provided in VA facilities"
                },
                {
                  "code": "3212",
                  "display": "Indirect Care--Care provided outside VA facilities"
                },
                {
                  "code": "32121",
                  "display": "Fee Basis"
                },
                {
                  "code": "32122",
                  "display": "Foreign Fee/Foreign Medical Program (FMP)"
                },
                {
                  "code": "32123",
                  "display": "Contract Nursing Home/Community Nursing Home"
                },
                {
                  "code": "32124",
                  "display": "State Veterans Home"
                },
                {
                  "code": "32125",
                  "display": "Sharing Agreements"
                },
                {
                  "code": "32126",
                  "display": "Other Federal Agency"
                },
                {
                  "code": "32127",
                  "display": "Dental Care"
                },
                {
                  "code": "32128",
                  "display": "Vision Care"
                },
                {
                  "code": "322",
                  "display": "Non-veteran care"
                },
                {
                  "code": "3221",
                  "display": "Civilian Health and Medical Program for the VA (CHAMPVA)"
                },
                {
                  "code": "3222",
                  "display": "Spina Bifida Health Care Program (SB)"
                },
                {
                  "code": "3223",
                  "display": "Children of Women Vietnam Veterans (CWVV)"
                },
                {
                  "code": "3229",
                  "display": "Other non-veteran care"
                },
                {
                  "code": "33",
                  "display": "Indian Health Service or Tribe"
                },
                {
                  "code": "331",
                  "display": "Indian Health Service -- Regular"
                },
                {
                  "code": "332",
                  "display": "Indian Health Service -- Contract"
                },
                {
                  "code": "333",
                  "display": "Indian Health Service - Managed Care"
                },
                {
                  "code": "334",
                  "display": "Indian Tribe - Sponsored Coverage"
                },
                {
                  "code": "34",
                  "display": "HRSA Program"
                },
                {
                  "code": "341",
                  "display": "Title V (MCH Block Grant)"
                },
                {
                  "code": "342",
                  "display": "Migrant Health Program"
                },
                {
                  "code": "343",
                  "display": "Ryan White Act"
                },
                {
                  "code": "349",
                  "display": "Other"
                },
                {
                  "code": "35",
                  "display": "Black Lung"
                },
                {
                  "code": "36",
                  "display": "State Government"
                },
                {
                  "code": "361",
                  "display": "State SCHIP program (codes for individual states)"
                },
                {
                  "code": "362",
                  "display": "Specific state programs (list/ local code)"
                },
                {
                  "code": "369",
                  "display": "State, not otherwise specified (other state)"
                },
                {
                  "code": "37",
                  "display": "Local Government"
                },
                {
                  "code": "371",
                  "display": "Local - Managed care"
                },
                {
                  "code": "3711",
                  "display": "HMO"
                },
                {
                  "code": "3712",
                  "display": "PPO"
                },
                {
                  "code": "3713",
                  "display": "POS"
                },
                {
                  "code": "372",
                  "display": "FFS/Indemnity"
                },
                {
                  "code": "379",
                  "display": "Local, not otherwise specified (other local, county)"
                },
                {
                  "code": "38",
                  "display": "Other Government (Federal, State, Local not specified)"
                },
                {
                  "code": "381",
                  "display": "Federal, State, Local not specified managed care"
                },
                {
                  "code": "3811",
                  "display": "Federal, State, Local not specified - HMO"
                },
                {
                  "code": "3812",
                  "display": "Federal, State, Local not specified - PPO"
                },
                {
                  "code": "3813",
                  "display": "Federal, State, Local not specified - POS"
                },
                {
                  "code": "3819",
                  "display": "Federal, State, Local not specified - not specified managed care"
                },
                {
                  "code": "382",
                  "display": "Federal, State, Local not specified - FFS"
                },
                {
                  "code": "389",
                  "display": "Federal, State, Local not specified - Other"
                },
                {
                  "code": "39",
                  "display": "Other Federal"
                },
                {
                  "code": "391",
                  "display": "Federal Employee Health Plan - Use when known"
                },
                {
                  "code": "4",
                  "display": "DEPARTMENTS OF CORRECTIONS"
                },
                {
                  "code": "41",
                  "display": "Corrections Federal"
                },
                {
                  "code": "42",
                  "display": "Corrections State"
                },
                {
                  "code": "43",
                  "display": "Corrections Local"
                },
                {
                  "code": "44",
                  "display": "Corrections Unknown Level"
                },
                {
                  "code": "5",
                  "display": "PRIVATE HEALTH INSURANCE"
                },
                {
                  "code": "51",
                  "display": "Managed Care (Private)"
                },
                {
                  "code": "511",
                  "display": "Commercial Managed Care - HMO"
                },
                {
                  "code": "512",
                  "display": "Commercial Managed Care - PPO"
                },
                {
                  "code": "513",
                  "display": "Commercial Managed Care - POS"
                },
                {
                  "code": "514",
                  "display": "Exclusive Provider Organization"
                },
                {
                  "code": "515",
                  "display": "Gatekeeper PPO (GPPO)"
                },
                {
                  "code": "516",
                  "display": "Commercial Managed Care - Pharmacy Benefit Manager"
                },
                {
                  "code": "517",
                  "display": "Commercial Managed Care - Dental"
                },
                {
                  "code": "519",
                  "display": "Managed Care, Other (non HMO)"
                },
                {
                  "code": "52",
                  "display": "Private Health Insurance - Indemnity"
                },
                {
                  "code": "521",
                  "display": "Commercial Indemnity"
                },
                {
                  "code": "522",
                  "display": "Self-insured (ERISA) Administrative Services Only (ASO) plan"
                },
                {
                  "code": "523",
                  "display": "Medicare supplemental policy (as second payer)"
                },
                {
                  "code": "524",
                  "display": "Indemnity Insurance - Dental"
                },
                {
                  "code": "529",
                  "display": "Private health insurance--other commercial Indemnity"
                },
                {
                  "code": "53",
                  "display": "Managed Care (private) or private health insurance (indemnity), not otherwise specified"
                },
                {
                  "code": "54",
                  "display": "Organized Delivery System"
                },
                {
                  "code": "55",
                  "display": "Small Employer Purchasing Group"
                },
                {
                  "code": "56",
                  "display": "Specialized Stand Alone Plan"
                },
                {
                  "code": "561",
                  "display": "Dental"
                },
                {
                  "code": "562",
                  "display": "Vision"
                },
                {
                  "code": "59",
                  "display": "Other Private Insurance"
                },
                {
                  "code": "6",
                  "display": "BLUE CROSS/BLUE SHIELD"
                },
                {
                  "code": "61",
                  "display": "BC Managed Care"
                },
                {
                  "code": "611",
                  "display": "BC Managed Care -- HMO"
                },
                {
                  "code": "612",
                  "display": "BC Managed Care -- PPO"
                },
                {
                  "code": "613",
                  "display": "BC Managed Care -- POS"
                },
                {
                  "code": "614",
                  "display": "BC Managed Care - Dental"
                },
                {
                  "code": "619",
                  "display": "BC Managed Care -- Other"
                },
                {
                  "code": "62",
                  "display": "BC Insurance Indemnity"
                },
                {
                  "code": "621",
                  "display": "BC Indemnity"
                },
                {
                  "code": "622",
                  "display": "BC Self-insured (ERISA) Administrative Services Only (ASO)Plan"
                },
                {
                  "code": "623",
                  "display": "BC Medicare Supplemental Plan"
                },
                {
                  "code": "629",
                  "display": "BC Indemnity - Dental"
                },
                {
                  "code": "7",
                  "display": "MANAGED CARE, UNSPECIFIED (to be used only if one can't distinguish public from private)"
                },
                {
                  "code": "71",
                  "display": "HMO"
                },
                {
                  "code": "72",
                  "display": "PPO"
                },
                {
                  "code": "73",
                  "display": "POS"
                },
                {
                  "code": "79",
                  "display": "Other Managed Care"
                },
                {
                  "code": "8",
                  "display": "NO PAYMENT from an Organization/Agency/Program/Private Payer Listed"
                },
                {
                  "code": "81",
                  "display": "Self-pay (Includes applicants for insurance and Medicaid applicants)"
                },
                {
                  "code": "82",
                  "display": "No Charge"
                },
                {
                  "code": "821",
                  "display": "Charity"
                },
                {
                  "code": "822",
                  "display": "Professional Courtesy"
                },
                {
                  "code": "823",
                  "display": "Research/Clinical Trial"
                },
                {
                  "code": "83",
                  "display": "Refusal to Pay/Bad Debt"
                },
                {
                  "code": "84",
                  "display": "Hill Burton Free Care"
                },
                {
                  "code": "85",
                  "display": "Research/Donor"
                },
                {
                  "code": "89",
                  "display": "No Payment, Other"
                },
                {
                  "code": "9",
                  "display": "MISCELLANEOUS/OTHER"
                },
                {
                  "code": "91",
                  "display": "Foreign National"
                },
                {
                  "code": "92",
                  "display": "Other (Non-government)"
                },
                {
                  "code": "93",
                  "display": "Disability Insurance"
                },
                {
                  "code": "94",
                  "display": "Long-term Care Insurance"
                },
                {
                  "code": "95",
                  "display": "Worker's Compensation"
                },
                {
                  "code": "951",
                  "display": "Worker's Comp HMO"
                },
                {
                  "code": "953",
                  "display": "Worker's Comp Fee-for-Service"
                },
                {
                  "code": "954",
                  "display": "Worker's Comp Other Managed Care"
                },
                {
                  "code": "959",
                  "display": "Worker's Comp, Other unspecified"
                },
                {
                  "code": "96",
                  "display": "Auto Insurance (includes no fault)"
                },
                {
                  "code": "97",
                  "display": "Legal Liability / Liability Insurance"
                },
                {
                  "code": "98",
                  "display": "Other specified but not otherwise classifiable (includes Hospice - Unspecified plan)"
                },
                {
                  "code": "99",
                  "display": "No Typology Code available for payment source"
                },
                {
                  "code": "9999",
                  "display": "Unavailable / No Payer Specified / Blank"
                }
              ]
            }
          ]
        }
      },
      "request": {
        "method": "PUT",
        "url": "ValueSet/2.16.840.1.114222.4.11.3591"
      }
    },
    {
      "resource": {
        "resourceType": "Library",
        "id": "library-MATGlobalCommonFunctions-5.0.000",
        "text": {
          "status": "generated",
          "div": "<div xmlns=\"http://www.w3.org/1999/xhtml\"><table class=\"grid dict\"><tr><th scope=\"row\"><b>Id: </b></th><td style=\"padding-left: 25px; padding-right: 25px;\">library-MATGlobalCommonFunctions-5.0.000</td></tr><tr><th scope=\"row\"><b>Type: </b></th><td style=\"padding-right: 25px;\"> logic-library </td></tr><tr><th scope=\"row\"><b>Version: </b></th><td style=\"padding-left: 25px; padding-right: 25px;\">5.0.000</td></tr><tr><th scope=\"row\"><b>Status: </b></th><td style=\"padding-left: 25px; padding-right: 25px;\">active</td></tr><tr style=\"vertical-align: top;\"><th rowspan=\"1\" scope=\"row\"><b>Related: </b></th><td style=\"padding-left: 25px; padding-right: 25px;\"><p style=\"margin-bottom: 5px;\"><b>type: </b><span>depends-on</span></p><p style=\"margin-bottom: 5px;\"><b>Resource: </b><br/><span>http://fhir.org/guides/dbcg/connectathon/Library/library-FHIRHelpers|4.0.1</span></p></td></tr><tr style=\"vertical-align: top;\"><th rowspan=\"9\" scope=\"row\"><b>Data Requirements: </b></th><td style=\"padding-left: 25px; padding-right: 25px;\"><div><p style=\"margin-bottom: 5px;\"><b>type: </b><span>Encounter</span></p><p style=\"margin-bottom: 5px;\"><b>code filter:</b><br/><span style=\"padding-left: 25px;\"><b>path: </b><span>type</span></span><br/><span style=\"padding-left: 25px;\"><b>valueset: </b><span>http://cts.nlm.nih.gov/fhir/ValueSet/2.16.840.1.113883.3.666.5.307</span></span></p></div></td></tr><tr style=\"vertical-align: top;\"><td style=\"padding-left: 25px; padding-right: 25px;\"><div><p style=\"margin-bottom: 5px;\"><b>type: </b><span>Encounter</span></p><p style=\"margin-bottom: 5px;\"><b>code filter:</b><br/><span style=\"padding-left: 25px;\"><b>path: </b><span>type</span></span><br/><span style=\"padding-left: 25px;\"><b>valueset: </b><span>http://cts.nlm.nih.gov/fhir/ValueSet/2.16.840.1.113883.3.117.1.7.1.292</span></span></p></div></td></tr><tr style=\"vertical-align: top;\"><td style=\"padding-left: 25px; padding-right: 25px;\"><div><p style=\"margin-bottom: 5px;\"><b>type: </b><span>Encounter</span></p><p style=\"margin-bottom: 5px;\"><b>code filter:</b><br/><span style=\"padding-left: 25px;\"><b>path: </b><span>type</span></span><br/><span style=\"padding-left: 25px;\"><b>valueset: </b><span>http://cts.nlm.nih.gov/fhir/ValueSet/2.16.840.1.113762.1.4.1111.143</span></span></p></div></td></tr><tr style=\"vertical-align: top;\"><td style=\"padding-left: 25px; padding-right: 25px;\"><div><p style=\"margin-bottom: 5px;\"><b>type: </b><span>Encounter</span></p><p style=\"margin-bottom: 5px;\"><b>code filter:</b><br/><span style=\"padding-left: 25px;\"><b>path: </b><span>type</span></span><br/><span style=\"padding-left: 25px;\"><b>valueset: </b><span>http://cts.nlm.nih.gov/fhir/ValueSet/2.16.840.1.113883.3.117.1.7.1.292</span></span></p></div></td></tr><tr style=\"vertical-align: top;\"><td style=\"padding-left: 25px; padding-right: 25px;\"><div><p style=\"margin-bottom: 5px;\"><b>type: </b><span>Condition</span></p></div></td></tr><tr style=\"vertical-align: top;\"><td style=\"padding-left: 25px; padding-right: 25px;\"><div><p style=\"margin-bottom: 5px;\"><b>type: </b><span>Condition</span></p></div></td></tr><tr style=\"vertical-align: top;\"><td style=\"padding-left: 25px; padding-right: 25px;\"><div><p style=\"margin-bottom: 5px;\"><b>type: </b><span>Location</span></p></div></td></tr><tr style=\"vertical-align: top;\"><td style=\"padding-left: 25px; padding-right: 25px;\"><div><p style=\"margin-bottom: 5px;\"><b>type: </b><span>Provenance</span></p><p style=\"margin-bottom: 5px;\"><b>code filter:</b><br/><span style=\"padding-left: 25px;\"><b>path: </b><span>target</span></span></p></div></td></tr><tr style=\"vertical-align: top;\"><td style=\"padding-left: 25px; padding-right: 25px;\"><div><p style=\"margin-bottom: 5px;\"><b>type: </b><span>Medication</span></p></div></td></tr><tr style=\"vertical-align: top;\"><th scope=\"row\"><b>Content: </b></th><td style=\"padding-left: 25px; padding-right: 25px;\"><b>type: </b><span>text/cql</span></td></tr><tr><td colspan=\"2\" style=\"padding-left: 25px; padding-right: 25px;\"><pre><code class=\"language-cql\">library MATGlobalCommonFunctions version '5.0.000'\n\nusing FHIR version '4.0.1'\n\ninclude FHIRHelpers version '4.0.1' called FHIRHelpers\n\ncodesystem &quot;LOINC&quot;: 'http://loinc.org'\ncodesystem &quot;SNOMEDCT&quot;: 'http://snomed.info/sct/731000124108'\ncodesystem &quot;RoleCode&quot;: 'http://hl7.org/fhir/v3/RoleCode'\ncodesystem &quot;Diagnosis Role&quot;: 'http://terminology.hl7.org/CodeSystem/diagnosis-role'\ncodesystem &quot;RequestIntent&quot;: 'http://terminology.hl7.org/CodeSystem/request-intent'\ncodesystem &quot;MedicationRequestCategory&quot;: 'http://terminology.hl7.org/CodeSystem/medicationrequest-category'\ncodesystem &quot;ConditionClinicalStatusCodes&quot;: 'http://terminology.hl7.org/CodeSystem/condition-clinical'\ncodesystem &quot;ConditionVerificationStatusCodes&quot;: 'http://terminology.hl7.org/CodeSystem/condition-verification'\ncodesystem &quot;AllergyIntoleranceClinicalStatusCodes&quot;: 'http://terminology.hl7.org/CodeSystem/allergyintolerance-clinical'\ncodesystem &quot;AllergyIntoleranceVerificationStatusCodes&quot;: 'http://terminology.hl7.org/CodeSystem/allergyintolerance-verification'\n\nvalueset &quot;Encounter Inpatient&quot;: 'http://cts.nlm.nih.gov/fhir/ValueSet/2.16.840.1.113883.3.666.5.307'\nvalueset &quot;Emergency Department Visit&quot;: 'http://cts.nlm.nih.gov/fhir/ValueSet/2.16.840.1.113883.3.117.1.7.1.292'\nvalueset &quot;Observation Services&quot;: 'http://cts.nlm.nih.gov/fhir/ValueSet/2.16.840.1.113762.1.4.1111.143'\n\ncode &quot;Birthdate&quot;: '21112-8' from &quot;LOINC&quot; display 'Birth date'\ncode &quot;Dead&quot;: '419099009' from &quot;SNOMEDCT&quot; display 'Dead'\ncode &quot;ER&quot;: 'ER' from &quot;RoleCode&quot; display 'Emergency room'\ncode &quot;ICU&quot;: 'ICU' from &quot;RoleCode&quot; display 'Intensive care unit'\ncode &quot;Billing&quot;: 'billing' from &quot;Diagnosis Role&quot; display 'Billing'\n\n// Condition Clinical Status Codes - Consider value sets for these\ncode &quot;active&quot;: 'active' from &quot;ConditionClinicalStatusCodes&quot;\ncode &quot;recurrence&quot;: 'recurrence' from &quot;ConditionClinicalStatusCodes&quot;\ncode &quot;relapse&quot;: 'relapse' from &quot;ConditionClinicalStatusCodes&quot;\ncode &quot;inactive&quot;: 'inactive' from &quot;ConditionClinicalStatusCodes&quot;\ncode &quot;remission&quot;: 'remission' from &quot;ConditionClinicalStatusCodes&quot;\ncode &quot;resolved&quot;: 'resolved' from &quot;ConditionClinicalStatusCodes&quot;\n\n// Condition Verification Status Codes - Consider value sets for these\ncode &quot;unconfirmed&quot;: 'unconfirmed' from ConditionVerificationStatusCodes\ncode &quot;provisional&quot;: 'provisional' from ConditionVerificationStatusCodes\ncode &quot;differential&quot;: 'differential' from ConditionVerificationStatusCodes\ncode &quot;confirmed&quot;: 'confirmed' from ConditionVerificationStatusCodes\ncode &quot;refuted&quot;: 'refuted' from ConditionVerificationStatusCodes\ncode &quot;entered-in-error&quot;: 'entered-in-error' from ConditionVerificationStatusCodes\n\ncode &quot;allergy-active&quot;: 'active' from &quot;AllergyIntoleranceClinicalStatusCodes&quot;\ncode &quot;allergy-inactive&quot;: 'inactive' from &quot;AllergyIntoleranceClinicalStatusCodes&quot;\ncode &quot;allergy-resolved&quot;: 'resolved' from &quot;AllergyIntoleranceClinicalStatusCodes&quot;\n\n// Allergy/Intolerance Verification Status Codes - Consider value sets for these\ncode &quot;allergy-unconfirmed&quot;: 'unconfirmed' from AllergyIntoleranceVerificationStatusCodes\ncode &quot;allergy-confirmed&quot;: 'confirmed' from AllergyIntoleranceVerificationStatusCodes\ncode &quot;allergy-refuted&quot;: 'refuted' from AllergyIntoleranceVerificationStatusCodes\n\n// MedicationRequest Category Codes\ncode &quot;Community&quot;: 'community' from &quot;MedicationRequestCategory&quot; display 'Community'\ncode &quot;Discharge&quot;: 'discharge' from &quot;MedicationRequestCategory&quot; display 'Discharge'\n\nparameter &quot;Measurement Period&quot; Interval&lt;DateTime&gt;\n  default Interval[@2019-01-01T00:00:00.0, @2020-01-01T00:00:00.0)\n\ncontext Patient\n\ndefine &quot;Inpatient Encounter&quot;:\n\t[Encounter: &quot;Encounter Inpatient&quot;] EncounterInpatient\n\t\twhere EncounterInpatient.status = 'finished'\n\t\t    and &quot;LengthInDays&quot;(EncounterInpatient.period) &lt;= 120\n\t\t\tand EncounterInpatient.period ends during &quot;Measurement Period&quot;\n\ndefine function &quot;ToDate&quot;(Value DateTime):\n\tDateTime(year from Value, month from Value, day from Value, 0, 0, 0, 0, timezoneoffset from Value)\n\ndefine function &quot;CalendarAgeInDaysAt&quot;(BirthDateTime DateTime, AsOf DateTime):\n\tdays between ToDate(BirthDateTime)and ToDate(AsOf)\n\ndefine function &quot;CalendarAgeInDays&quot;(BirthDateTime DateTime):\n\tCalendarAgeInDaysAt(BirthDateTime, Today())\n\ndefine function &quot;CalendarAgeInMonthsAt&quot;(BirthDateTime DateTime, AsOf DateTime):\n\tmonths between ToDate(BirthDateTime)and ToDate(AsOf)\n\ndefine function &quot;CalendarAgeInMonths&quot;(BirthDateTime DateTime):\n\tCalendarAgeInMonthsAt(BirthDateTime, Today())\n\ndefine function &quot;CalendarAgeInYearsAt&quot;(BirthDateTime DateTime, AsOf DateTime):\n\tyears between ToDate(BirthDateTime)and ToDate(AsOf)\n\ndefine function &quot;CalendarAgeInYears&quot;(BirthDateTime DateTime):\n\tCalendarAgeInYearsAt(BirthDateTime, Today())\n\ndefine function &quot;LengthInDays&quot;(Value Interval&lt;DateTime&gt;):\n\tdifference in days between start of Value and end of Value\n\ndefine function &quot;ED Visit&quot;(TheEncounter FHIR.Encounter):\n    singleton from (\n        [Encounter: &quot;Emergency Department Visit&quot;] EDVisit\n            where EDVisit.status = 'finished'\n                and EDVisit.period ends 1 hour or less on or before start of FHIRHelpers.ToInterval(TheEncounter.period)\n    )\n\ndefine function &quot;Hospitalization&quot;(TheEncounter FHIR.Encounter):\n\t( &quot;ED Visit&quot;(TheEncounter) ) X\n    return\n        if X is null then TheEncounter.period\n        else Interval[start of FHIRHelpers.ToInterval(X.period), end of FHIRHelpers.ToInterval(TheEncounter.period)]\n\ndefine function &quot;Hospitalization Locations&quot;(TheEncounter FHIR.Encounter):\n\t( &quot;ED Visit&quot;(TheEncounter) ) EDEncounter\n    return\n        if EDEncounter is null then TheEncounter.location\n        else flatten { EDEncounter.location, TheEncounter.location }\n\ndefine function &quot;Hospitalization Length of Stay&quot;(TheEncounter FHIR.Encounter):\n\tLengthInDays(&quot;Hospitalization&quot;(TheEncounter))\n\ndefine function &quot;Hospital Admission Time&quot;(TheEncounter FHIR.Encounter):\n\tstart of &quot;Hospitalization&quot;(TheEncounter)\n\ndefine function &quot;Hospital Discharge Time&quot;(TheEncounter FHIR.Encounter):\n\tend of FHIRHelpers.ToInterval(TheEncounter.period)\n\ndefine function &quot;Hospital Arrival Time&quot;(TheEncounter FHIR.Encounter):\n\tstart of FHIRHelpers.ToInterval(First(\n\t    ( &quot;Hospitalization Locations&quot;(TheEncounter) ) HospitalLocation\n\t\t\tsort by start of FHIRHelpers.ToInterval(period)\n\t).period)\n\ndefine function &quot;HospitalizationWithObservation&quot;(TheEncounter FHIR.Encounter):\n\tTheEncounter Visit\n\t\tlet ObsVisit: Last([Encounter: &quot;Observation Services&quot;] LastObs\n\t\t\t\twhere LastObs.period ends 1 hour or less on or before start of Visit.period\n\t\t\t\tsort by end of period\n\t\t\t),\n\t\t\tVisitStart: Coalesce(start of ObsVisit.period, start of Visit.period),\n\t\t\tEDVisit: Last([Encounter: &quot;Emergency Department Visit&quot;] LastED\n\t\t\t\twhere LastED.period ends 1 hour or less on or before VisitStart\n\t\t\t\tsort by end of period\n\t\t\t)\n\t\treturn Interval[Coalesce(start of EDVisit.period, VisitStart), end of Visit.period]\n\ndefine function &quot;HospitalizationWithObservationLengthofStay&quot;(Encounter FHIR.Encounter):\n\t&quot;LengthInDays&quot;(&quot;HospitalizationWithObservation&quot;(Encounter))\n\n// TODO - fix these (must fetch Location resources and compare id to reference)\n/*define function &quot;Hospital Departure Time&quot;(TheEncounter FHIR.Encounter):\n\tend of FHIRHelpers.ToInterval(Last(\n\t    ( &quot;Hospitalization Locations&quot;(TheEncounter) ) HospitalLocation\n\t\t\tsort by start of FHIRHelpers.ToInterval(period)\n\t).period)\n\ndefine function &quot;Emergency Department Arrival Time&quot;(TheEncounter FHIR.Encounter):\n\tstart of FHIRHelpers.ToInterval((\n\t    singleton from (\n\t        ( &quot;Hospitalization Locations&quot;(TheEncounter) ) HospitalLocation\n\t\t\t\twhere HospitalLocation.type ~ &quot;ER&quot;\n\t\t)\n\t).period)\n\ndefine function &quot;First Inpatient Intensive Care Unit&quot;(TheEncounter FHIR.Encounter):\n\tFirst(\n\t    ( TheEncounter.location ) HospitalLocation\n\t\t\twhere HospitalLocation.type ~ &quot;ICU&quot;\n\t\t\t\tand HospitalLocation.period during TheEncounter.period\n\t\t\tsort by start of FHIRHelpers.ToInterval(period)\n\t)*/\n\n/*\n*\n*    CQFMeasures Common Logic\n*\n*/\n\ndefine function &quot;Normalize Interval&quot;(choice Choice&lt;FHIR.dateTime, FHIR.Period, FHIR.Timing, FHIR.instant, FHIR.string, FHIR.Age, FHIR.Range&gt;):\n  case\n\t  when choice is FHIR.dateTime then\n    \tInterval[FHIRHelpers.ToDateTime(choice as FHIR.dateTime), FHIRHelpers.ToDateTime(choice as FHIR.dateTime)]\n\t\twhen choice is FHIR.Period then\n  \t\tFHIRHelpers.ToInterval(choice as FHIR.Period)\n\t\twhen choice is FHIR.instant then\n\t\t\tInterval[FHIRHelpers.ToDateTime(choice as FHIR.instant), FHIRHelpers.ToDateTime(choice as FHIR.instant)]\n\t\twhen choice is FHIR.Age then\n\t\t  Interval[FHIRHelpers.ToDate(Patient.birthDate) + FHIRHelpers.ToQuantity(choice as FHIR.Age),\n\t\t\t  FHIRHelpers.ToDate(Patient.birthDate) + FHIRHelpers.ToQuantity(choice as FHIR.Age) + 1 year)\n\t\twhen choice is FHIR.Range then\n\t\t  Interval[FHIRHelpers.ToDate(Patient.birthDate) + FHIRHelpers.ToQuantity((choice as FHIR.Range).low),\n\t\t\t  FHIRHelpers.ToDate(Patient.birthDate) + FHIRHelpers.ToQuantity((choice as FHIR.Range).high) + 1 year)\n\t\twhen choice is FHIR.Timing then\n\t\t  Message(null as Interval&lt;DateTime&gt;, true, '1', 'Error', 'Cannot compute a single interval from a Timing type')\n    when choice is FHIR.string then\n      Message(null as Interval&lt;DateTime&gt;, true, '1', 'Error', 'Cannot compute an interval from a String value')\n\t\telse\n\t\t\tnull as Interval&lt;DateTime&gt;\n\tend\n\ndefine function &quot;Normalize Abatement&quot;(condition Condition):\n\tif condition.abatement is FHIR.dateTime then\n\t  Interval[FHIRHelpers.ToDateTime(condition.abatement as FHIR.dateTime), FHIRHelpers.ToDateTime(condition.abatement as FHIR.dateTime)]\n\telse if condition.abatement is FHIR.Period then\n\t  FHIRHelpers.ToInterval(condition.abatement as FHIR.Period)\n\telse if condition.abatement is FHIR.string then\n    Message(null as Interval&lt;DateTime&gt;, true, '1', 'Error', 'Cannot compute an interval from a String value')\n\telse if condition.abatement is FHIR.Age then\n\t\tInterval[FHIRHelpers.ToDate(Patient.birthDate) + FHIRHelpers.ToQuantity(condition.abatement as FHIR.Age),\n\t\t\tFHIRHelpers.ToDate(Patient.birthDate) + FHIRHelpers.ToQuantity(condition.abatement as FHIR.Age) + 1 year)\n\telse if condition.abatement is FHIR.Range then\n\t  Interval[FHIRHelpers.ToDate(Patient.birthDate) + FHIRHelpers.ToQuantity((condition.abatement as FHIR.Range).low),\n\t\t  FHIRHelpers.ToDate(Patient.birthDate) + FHIRHelpers.ToQuantity((condition.abatement as FHIR.Range).high) + 1 year)\n\telse if condition.abatement is FHIR.boolean then\n\t  Interval[end of &quot;Normalize Interval&quot;(condition.onset), condition.recordedDate)\n\telse null\n\ndefine function &quot;Prevalence Period&quot;(condition Condition):\n  Interval[start of &quot;Normalize Interval&quot;(condition.onset), end of &quot;Normalize Abatement&quot;(condition))\n\ndefine function &quot;GetId&quot;(uri String):\n\tLast(Split(uri, '/'))\n\n\ndefine function &quot;EncounterDiagnosis&quot;(Encounter Encounter):\n  Encounter.diagnosis D\n    return singleton from ([Condition] C where C.id = &quot;GetId&quot;(D.condition.reference))\n\n// Returns the condition that is specified as the principal diagnosis for the encounter\n// TODO: BTR 2019-07-30: Shouldn't need the FHIRHelpers reference here, investigate\ndefine function &quot;PrincipalDiagnosis&quot;(Encounter Encounter):\n\t(singleton from (Encounter.diagnosis D where FHIRHelpers.ToInteger(D.rank) = 1)) PD\n\t\treturn singleton from ([Condition] C where C.id = &quot;GetId&quot;(PD.condition.reference))\n\n// Returns the location for the given location reference\ndefine function GetLocation(reference Reference):\n  singleton from (\n    [Location] L where L.id = GetId(reference.reference)\n  )\n\n/*\nNOTE: Extensions are not the preferred approach, but are used as a way to access\ncontent that is defined by extensions but not yet surfaced in the\nCQL model info.\n*/\ndefine function &quot;GetExtensions&quot;(domainResource DomainResource, url String):\n  domainResource.extension E\n\t  where E.url = ('http://hl7.org/fhir/us/qicore/StructureDefinition/' + url)\n\t\treturn E\n\ndefine function &quot;GetExtension&quot;(domainResource DomainResource, url String):\n  singleton from &quot;GetExtensions&quot;(domainResource, url)\n\n/*\nNOTE: Extensions are not the preferred approach, but are used as a way to access\ncontent that is defined by extensions but not yet surfaced in the\nCQL model info.\n*/\ndefine function &quot;GetExtensions&quot;(element Element, url String):\n  element.extension E\n\t  where E.url = (url)\n\t\treturn E\n\ndefine function &quot;GetExtension&quot;(element Element, url String):\n  singleton from &quot;GetExtensions&quot;(element, url)\n\n/*\nNOTE: Extensions are not the preferred approach, but are used as a way to access\ncontent that is defined by extensions but not yet surfaced in the\nCQL model info.\n*/\ndefine function &quot;GetBaseExtensions&quot;(domainResource DomainResource, url String):\n  domainResource.extension E\n\t  where E.url = ('http://hl7.org/fhir/StructureDefinition/' + url)\n\t\treturn E\n\ndefine function &quot;GetBaseExtension&quot;(domainResource DomainResource, url String):\n  singleton from &quot;GetBaseExtensions&quot;(domainResource, url)\n\n/*\nNOTE: Provenance is not the preferred approach, this is provided only as an illustration\nfor what using Provenance could look like, and is not a tested pattern\n*/\ndefine function &quot;GetProvenance&quot;(resource Resource):\n  singleton from ([Provenance: target in resource.id])\n\ndefine function &quot;GetMedicationCode&quot;(request MedicationRequest):\n  if request.medication is CodeableConcept then\n\t  request.medication as CodeableConcept\n\telse\n\t  (singleton from ([Medication] M where M.id = GetId((request.medication as Reference).reference))).code\n</code></pre>\n                    \n                    \n                </td>\n            </tr>\n        \n    </table>\n</div>"
        },
        "contained": [
          {
            "resourceType": "Device",
            "id": "cqf-tooling",
            "meta": {
              "profile": [
                "http://hl7.org/fhir/us/cqfmeasures/StructureDefinition/device-softwaresystem-cqfm"
              ]
            },
            "type": {
              "coding": [
                {
                  "system": "http://hl7.org/fhir/us/cqfmeasures/CodeSystem/software-system-type",
                  "code": "tooling"
                }
              ]
            },
            "version": [
              {
                "value": "1.1.0-SNAPSHOT"
              }
            ]
          }
        ],
        "extension": [
          {
            "url": "http://hl7.org/fhir/us/cqfmeasures/StructureDefinition/cqfm-softwaresystem",
            "valueReference": {
              "reference": "#cqf-tooling"
            }
          }
        ],
        "version": "5.0.000",
        "name": "MATGlobalCommonFunctions",
        "status": "active",
        "experimental": true,
        "type": {
          "coding": [
            {
              "system": "http://terminology.hl7.org/CodeSystem/library-type",
              "code": "logic-library"
            }
          ]
        },
        "relatedArtifact": [
          {
            "type": "depends-on",
            "resource": "http://fhir.org/guides/dbcg/connectathon/Library/library-FHIRHelpers|4.0.1"
          }
        ],
        "dataRequirement": [
          {
            "type": "Encounter",
            "profile": [
              "http://hl7.org/fhir/StructureDefinition/Encounter"
            ],
            "codeFilter": [
              {
                "path": "type",
                "valueSet": "http://cts.nlm.nih.gov/fhir/ValueSet/2.16.840.1.113883.3.666.5.307"
              }
            ]
          },
          {
            "type": "Encounter",
            "profile": [
              "http://hl7.org/fhir/StructureDefinition/Encounter"
            ],
            "codeFilter": [
              {
                "path": "type",
                "valueSet": "http://cts.nlm.nih.gov/fhir/ValueSet/2.16.840.1.113883.3.117.1.7.1.292"
              }
            ]
          },
          {
            "type": "Encounter",
            "profile": [
              "http://hl7.org/fhir/StructureDefinition/Encounter"
            ],
            "codeFilter": [
              {
                "path": "type",
                "valueSet": "http://cts.nlm.nih.gov/fhir/ValueSet/2.16.840.1.113762.1.4.1111.143"
              }
            ]
          },
          {
            "type": "Encounter",
            "profile": [
              "http://hl7.org/fhir/StructureDefinition/Encounter"
            ],
            "codeFilter": [
              {
                "path": "type",
                "valueSet": "http://cts.nlm.nih.gov/fhir/ValueSet/2.16.840.1.113883.3.117.1.7.1.292"
              }
            ]
          },
          {
            "type": "Condition",
            "profile": [
              "http://hl7.org/fhir/StructureDefinition/Condition"
            ]
          },
          {
            "type": "Condition",
            "profile": [
              "http://hl7.org/fhir/StructureDefinition/Condition"
            ]
          },
          {
            "type": "Location",
            "profile": [
              "http://hl7.org/fhir/StructureDefinition/Location"
            ]
          },
          {
            "type": "Provenance",
            "profile": [
              "http://hl7.org/fhir/StructureDefinition/Provenance"
            ],
            "codeFilter": [
              {
                "path": "target"
              }
            ]
          },
          {
            "type": "Medication",
            "profile": [
              "http://hl7.org/fhir/StructureDefinition/Medication"
            ]
          }
        ],
        "content": [
          {
            "contentType": "application/elm+xml",
            "data": ""
          },
          {
            "contentType": "text/cql",
            "data": ""
          }
        ]
      },
      "request": {
        "method": "PUT",
        "url": "Library/library-MATGlobalCommonFunctions-5.0.000"
      }
    },
    {
      "resource": {
        "resourceType": "ValueSet",
        "id": "2.16.840.1.113883.3.666.5.307",
        "url": "http://cts.nlm.nih.gov/fhir/ValueSet/2.16.840.1.113883.3.666.5.307",
        "identifier": [
          {
            "system": "urn:ietf:rfc:3986",
            "value": "2.16.840.1.113883.3.666.5.307"
          }
        ],
        "version": "20170504",
        "name": "EncounterInpatient",
        "title": "Encounter Inpatient",
        "status": "active",
        "publisher": "NLM",
        "compose": {
          "include": [
            {
              "system": "http://snomed.info/sct",
              "version": "2018-03",
              "concept": [
                {
                  "code": "183452005",
                  "display": "Emergency hospital admission (procedure)"
                },
                {
                  "code": "32485007",
                  "display": "Hospital admission (procedure)"
                },
                {
                  "code": "8715000",
                  "display": "Hospital admission, elective (procedure)"
                }
              ]
            }
          ]
        }
      },
      "request": {
        "method": "PUT",
        "url": "ValueSet/2.16.840.1.113883.3.666.5.307"
      }
    },
    {
      "resource": {
        "resourceType": "Library",
        "id": "library-AdultOutpatientEncounters-2.0.000",
        "text": {
          "status": "generated",
          "div": "<div xmlns=\"http://www.w3.org/1999/xhtml\"><table class=\"grid dict\"><tr><th scope=\"row\"><b>Id: </b></th><td style=\"padding-left: 25px; padding-right: 25px;\">library-AdultOutpatientEncounters-2.0.000</td></tr><tr><th scope=\"row\"><b>Type: </b></th><td style=\"padding-right: 25px;\"> logic-library </td></tr><tr><th scope=\"row\"><b>Version: </b></th><td style=\"padding-left: 25px; padding-right: 25px;\">2.0.000</td></tr><tr><th scope=\"row\"><b>Status: </b></th><td style=\"padding-left: 25px; padding-right: 25px;\">active</td></tr><tr style=\"vertical-align: top;\"><th rowspan=\"1\" scope=\"row\"><b>Related: </b></th><td style=\"padding-left: 25px; padding-right: 25px;\"><p style=\"margin-bottom: 5px;\"><b>type: </b><span>depends-on</span></p><p style=\"margin-bottom: 5px;\"><b>Resource: </b><br/><span>http://fhir.org/guides/dbcg/connectathon/Library/library-FHIRHelpers|4.0.1</span></p></td></tr><tr style=\"vertical-align: top;\"><th rowspan=\"5\" scope=\"row\"><b>Data Requirements: </b></th><td style=\"padding-left: 25px; padding-right: 25px;\"><div><p style=\"margin-bottom: 5px;\"><b>type: </b><span>Encounter</span></p><p style=\"margin-bottom: 5px;\"><b>code filter:</b><br/><span style=\"padding-left: 25px;\"><b>path: </b><span>type</span></span><br/><span style=\"padding-left: 25px;\"><b>valueset: </b><span>http://cts.nlm.nih.gov/fhir/ValueSet/2.16.840.1.113883.3.464.1003.101.12.1001</span></span></p></div></td></tr><tr style=\"vertical-align: top;\"><td style=\"padding-left: 25px; padding-right: 25px;\"><div><p style=\"margin-bottom: 5px;\"><b>type: </b><span>Encounter</span></p><p style=\"margin-bottom: 5px;\"><b>code filter:</b><br/><span style=\"padding-left: 25px;\"><b>path: </b><span>type</span></span><br/><span style=\"padding-left: 25px;\"><b>valueset: </b><span>http://cts.nlm.nih.gov/fhir/ValueSet/2.16.840.1.113883.3.526.3.1240</span></span></p></div></td></tr><tr style=\"vertical-align: top;\"><td style=\"padding-left: 25px; padding-right: 25px;\"><div><p style=\"margin-bottom: 5px;\"><b>type: </b><span>Encounter</span></p><p style=\"margin-bottom: 5px;\"><b>code filter:</b><br/><span style=\"padding-left: 25px;\"><b>path: </b><span>type</span></span><br/><span style=\"padding-left: 25px;\"><b>valueset: </b><span>http://cts.nlm.nih.gov/fhir/ValueSet/2.16.840.1.113883.3.464.1003.101.12.1025</span></span></p></div></td></tr><tr style=\"vertical-align: top;\"><td style=\"padding-left: 25px; padding-right: 25px;\"><div><p style=\"margin-bottom: 5px;\"><b>type: </b><span>Encounter</span></p><p style=\"margin-bottom: 5px;\"><b>code filter:</b><br/><span style=\"padding-left: 25px;\"><b>path: </b><span>type</span></span><br/><span style=\"padding-left: 25px;\"><b>valueset: </b><span>http://cts.nlm.nih.gov/fhir/ValueSet/2.16.840.1.113883.3.464.1003.101.12.1023</span></span></p></div></td></tr><tr style=\"vertical-align: top;\"><td style=\"padding-left: 25px; padding-right: 25px;\"><div><p style=\"margin-bottom: 5px;\"><b>type: </b><span>Encounter</span></p><p style=\"margin-bottom: 5px;\"><b>code filter:</b><br/><span style=\"padding-left: 25px;\"><b>path: </b><span>type</span></span><br/><span style=\"padding-left: 25px;\"><b>valueset: </b><span>http://cts.nlm.nih.gov/fhir/ValueSet/2.16.840.1.113883.3.464.1003.101.12.1016</span></span></p></div></td></tr><tr style=\"vertical-align: top;\"><th scope=\"row\"><b>Content: </b></th><td style=\"padding-left: 25px; padding-right: 25px;\"><b>type: </b><span>text/cql</span></td></tr><tr><td colspan=\"2\" style=\"padding-left: 25px; padding-right: 25px;\"><pre><code class=\"language-cql\">library AdultOutpatientEncounters version '2.0.000'\n\n/*\nThis example is a work in progress and should not be considered a final specification\nor recommendation for guidance. This example will help guide and direct the process\nof finding conventions and usage patterns that meet the needs of the various stakeholders\nin the measure development community.\n*/\n\n/*\n@update: @@BTR 2020-03-31 -&gt;\nIncremented version to 2.0.000\nUpdated FHIR version to 4.0.1\n@@@\n*/\n\nusing FHIR version '4.0.1'\n\ninclude FHIRHelpers version '4.0.1' called FHIRHelpers\n\nvalueset &quot;Office Visit&quot;: 'http://cts.nlm.nih.gov/fhir/ValueSet/2.16.840.1.113883.3.464.1003.101.12.1001'\nvalueset &quot;Annual Wellness Visit&quot;: 'http://cts.nlm.nih.gov/fhir/ValueSet/2.16.840.1.113883.3.526.3.1240'\nvalueset &quot;Preventive Care Services - Established Office Visit, 18 and Up&quot;: 'http://cts.nlm.nih.gov/fhir/ValueSet/2.16.840.1.113883.3.464.1003.101.12.1025'\nvalueset &quot;Preventive Care Services-Initial Office Visit, 18 and Up&quot;: 'http://cts.nlm.nih.gov/fhir/ValueSet/2.16.840.1.113883.3.464.1003.101.12.1023'\nvalueset &quot;Home Healthcare Services&quot;: 'http://cts.nlm.nih.gov/fhir/ValueSet/2.16.840.1.113883.3.464.1003.101.12.1016'\n\nparameter &quot;Measurement Period&quot; Interval&lt;DateTime&gt;\n  default Interval[@2019-01-01T00:00:00.0, @2020-01-01T00:00:00.0)\n\ncontext Patient\n\ndefine &quot;Qualifying Encounters&quot;:\n\t(\n    [Encounter: &quot;Office Visit&quot;]\n  \t\tunion [Encounter: &quot;Annual Wellness Visit&quot;]\n  \t\tunion [Encounter: &quot;Preventive Care Services - Established Office Visit, 18 and Up&quot;]\n  \t\tunion [Encounter: &quot;Preventive Care Services-Initial Office Visit, 18 and Up&quot;]\n  \t\tunion [Encounter: &quot;Home Healthcare Services&quot;]\n  ) ValidEncounter\n\t\twhere ValidEncounter.period during &quot;Measurement Period&quot;\n  \t\tand ValidEncounter.status  = 'finished'\n</code></pre>\n                    \n                    \n                </td>\n            </tr>\n        \n    </table>\n</div>"
        },
        "contained": [
          {
            "resourceType": "Device",
            "id": "cqf-tooling",
            "meta": {
              "profile": [
                "http://hl7.org/fhir/us/cqfmeasures/StructureDefinition/device-softwaresystem-cqfm"
              ]
            },
            "type": {
              "coding": [
                {
                  "system": "http://hl7.org/fhir/us/cqfmeasures/CodeSystem/software-system-type",
                  "code": "tooling"
                }
              ]
            },
            "version": [
              {
                "value": "1.1.0-SNAPSHOT"
              }
            ]
          }
        ],
        "extension": [
          {
            "url": "http://hl7.org/fhir/us/cqfmeasures/StructureDefinition/cqfm-softwaresystem",
            "valueReference": {
              "reference": "#cqf-tooling"
            }
          }
        ],
        "version": "2.0.000",
        "name": "AdultOutpatientEncounters",
        "status": "active",
        "experimental": true,
        "type": {
          "coding": [
            {
              "system": "http://terminology.hl7.org/CodeSystem/library-type",
              "code": "logic-library"
            }
          ]
        },
        "relatedArtifact": [
          {
            "type": "depends-on",
            "resource": "http://fhir.org/guides/dbcg/connectathon/Library/library-FHIRHelpers|4.0.1"
          }
        ],
        "dataRequirement": [
          {
            "type": "Encounter",
            "profile": [
              "http://hl7.org/fhir/StructureDefinition/Encounter"
            ],
            "codeFilter": [
              {
                "path": "type",
                "valueSet": "http://cts.nlm.nih.gov/fhir/ValueSet/2.16.840.1.113883.3.464.1003.101.12.1001"
              }
            ]
          },
          {
            "type": "Encounter",
            "profile": [
              "http://hl7.org/fhir/StructureDefinition/Encounter"
            ],
            "codeFilter": [
              {
                "path": "type",
                "valueSet": "http://cts.nlm.nih.gov/fhir/ValueSet/2.16.840.1.113883.3.526.3.1240"
              }
            ]
          },
          {
            "type": "Encounter",
            "profile": [
              "http://hl7.org/fhir/StructureDefinition/Encounter"
            ],
            "codeFilter": [
              {
                "path": "type",
                "valueSet": "http://cts.nlm.nih.gov/fhir/ValueSet/2.16.840.1.113883.3.464.1003.101.12.1025"
              }
            ]
          },
          {
            "type": "Encounter",
            "profile": [
              "http://hl7.org/fhir/StructureDefinition/Encounter"
            ],
            "codeFilter": [
              {
                "path": "type",
                "valueSet": "http://cts.nlm.nih.gov/fhir/ValueSet/2.16.840.1.113883.3.464.1003.101.12.1023"
              }
            ]
          },
          {
            "type": "Encounter",
            "profile": [
              "http://hl7.org/fhir/StructureDefinition/Encounter"
            ],
            "codeFilter": [
              {
                "path": "type",
                "valueSet": "http://cts.nlm.nih.gov/fhir/ValueSet/2.16.840.1.113883.3.464.1003.101.12.1016"
              }
            ]
          }
        ],
        "content": [
          {
            "contentType": "application/elm+xml",
            "data": ""
          },
          {
            "contentType": "text/cql",
            "data": ""
          }
        ]
      },
      "request": {
        "method": "PUT",
        "url": "Library/library-AdultOutpatientEncounters-2.0.000"
      }
    },
    {
      "resource": {
        "resourceType": "ValueSet",
        "id": "2.16.840.1.113883.3.464.1003.108.12.1018",
        "url": "http://cts.nlm.nih.gov/fhir/ValueSet/2.16.840.1.113883.3.464.1003.108.12.1018",
        "identifier": [
          {
            "system": "urn:ietf:rfc:3986",
            "value": "2.16.840.1.113883.3.464.1003.108.12.1018"
          }
        ],
        "version": "20171222",
        "name": "Mammography",
        "title": "Mammography",
        "status": "active",
        "publisher": "NLM",
        "compose": {
          "include": [
            {
              "system": "https://www.cms.gov/Medicare/Coding/MedHCPCSGenInfo/index.html",
              "version": "2017",
              "concept": [
                {
                  "code": "G0202",
                  "display": "Screening mammography, bilateral (2-view study of each breast), including computer-aided detection (cad) when performed"
                },
                {
                  "code": "G0204",
                  "display": "Diagnostic mammography, including computer-aided detection (cad) when performed; bilateral"
                },
                {
                  "code": "G0206",
                  "display": "Diagnostic mammography, including computer-aided detection (cad) when performed; unilateral"
                }
              ]
            },
            {
              "system": "http://loinc.org",
              "version": "2.58",
              "concept": [
                {
                  "code": "38067-5",
                  "display": "Breast - bilateral Mammogram nipple profile"
                }
              ]
            },
            {
              "system": "http://loinc.org",
              "version": "2.64",
              "concept": [
                {
                  "code": "24604-1",
                  "display": "MG Breast Diagnostic Limited Views"
                },
                {
                  "code": "24605-8",
                  "display": "MG Breast Diagnostic"
                },
                {
                  "code": "24606-6",
                  "display": "MG Breast Screening"
                },
                {
                  "code": "24610-8",
                  "display": "MG Breast Limited Views"
                },
                {
                  "code": "26175-0",
                  "display": "MG Breast - bilateral Screening"
                },
                {
                  "code": "26176-8",
                  "display": "MG Breast - left Screening"
                },
                {
                  "code": "26177-6",
                  "display": "MG Breast - right Screening"
                },
                {
                  "code": "26287-3",
                  "display": "MG Breast - bilateral Limited Views"
                },
                {
                  "code": "26289-9",
                  "display": "MG Breast - left Limited Views"
                },
                {
                  "code": "26291-5",
                  "display": "MG Breast - right Limited Views"
                },
                {
                  "code": "26346-7",
                  "display": "MG Breast - bilateral Diagnostic"
                },
                {
                  "code": "26347-5",
                  "display": "MG Breast - left Diagnostic"
                },
                {
                  "code": "26348-3",
                  "display": "MG Breast - right Diagnostic"
                },
                {
                  "code": "26349-1",
                  "display": "MG Breast - bilateral Diagnostic Limited Views"
                },
                {
                  "code": "26350-9",
                  "display": "MG Breast - left Diagnostic Limited Views"
                },
                {
                  "code": "26351-7",
                  "display": "MG Breast - right Diagnostic Limited Views"
                },
                {
                  "code": "36319-2",
                  "display": "MG Breast 4 Views"
                },
                {
                  "code": "36625-2",
                  "display": "MG Breast Views"
                },
                {
                  "code": "36626-0",
                  "display": "MG Breast - bilateral Views"
                },
                {
                  "code": "36627-8",
                  "display": "MG Breast - left Views"
                },
                {
                  "code": "36642-7",
                  "display": "MG Breast - left 2 Views"
                },
                {
                  "code": "36962-9",
                  "display": "MG Breast Axillary"
                },
                {
                  "code": "37005-6",
                  "display": "MG Breast - left Magnification"
                },
                {
                  "code": "37006-4",
                  "display": "MG Breast - bilateral MLO"
                },
                {
                  "code": "37016-3",
                  "display": "MG Breast - bilateral Rolled Views"
                },
                {
                  "code": "37017-1",
                  "display": "MG Breast - left Rolled Views"
                },
                {
                  "code": "37028-8",
                  "display": "MG Breast Tangential"
                },
                {
                  "code": "37029-6",
                  "display": "MG Breast - bilateral Tangential"
                },
                {
                  "code": "37030-4",
                  "display": "MG Breast - left Tangential"
                },
                {
                  "code": "37037-9",
                  "display": "MG Breast True lateral"
                },
                {
                  "code": "37038-7",
                  "display": "MG Breast - bilateral True lateral"
                },
                {
                  "code": "37052-8",
                  "display": "MG Breast - bilateral XCCL"
                },
                {
                  "code": "37053-6",
                  "display": "MG Breast - left XCCL"
                },
                {
                  "code": "37539-4",
                  "display": "MG Breast Grid Views"
                },
                {
                  "code": "37542-8",
                  "display": "MG Breast Magnification Views"
                },
                {
                  "code": "37543-6",
                  "display": "MG Breast - bilateral Magnification Views"
                },
                {
                  "code": "37551-9",
                  "display": "MG Breast Spot Views"
                },
                {
                  "code": "37552-7",
                  "display": "MG Breast - bilateral Spot Views"
                },
                {
                  "code": "37553-5",
                  "display": "MG Breast - left Spot Views compression"
                },
                {
                  "code": "37554-3",
                  "display": "MG Breast - bilateral Magnification and Spot"
                },
                {
                  "code": "37768-9",
                  "display": "MG Breast - right 2 Views"
                },
                {
                  "code": "37769-7",
                  "display": "MG Breast - right Magnification and Spot"
                },
                {
                  "code": "37770-5",
                  "display": "MG Breast - right Tangential"
                },
                {
                  "code": "37771-3",
                  "display": "MG Breast - right True lateral"
                },
                {
                  "code": "37772-1",
                  "display": "MG Breast - right XCCL"
                },
                {
                  "code": "37773-9",
                  "display": "MG Breast - right Magnification"
                },
                {
                  "code": "37774-7",
                  "display": "MG Breast - right Views"
                },
                {
                  "code": "37775-4",
                  "display": "MG Breast - right Rolled Views"
                },
                {
                  "code": "38070-9",
                  "display": "MG Breast Views for implant"
                },
                {
                  "code": "38071-7",
                  "display": "MG Breast - bilateral Views for implant"
                },
                {
                  "code": "38072-5",
                  "display": "MG Breast - left Views for implant"
                },
                {
                  "code": "38090-7",
                  "display": "MG Breast - bilateral Air gap Views"
                },
                {
                  "code": "38091-5",
                  "display": "MG Breast - left Air gap Views"
                },
                {
                  "code": "38807-4",
                  "display": "MG Breast - right Spot Views"
                },
                {
                  "code": "38820-7",
                  "display": "MG Breast - right Views for implant"
                },
                {
                  "code": "38854-6",
                  "display": "MG Breast - left Magnification and Spot"
                },
                {
                  "code": "38855-3",
                  "display": "MG Breast - left True lateral"
                },
                {
                  "code": "39150-8",
                  "display": "FFD mammogram Breast Views Post Localization"
                },
                {
                  "code": "39152-4",
                  "display": "FFD mammogram Breast Diagnostic"
                },
                {
                  "code": "39153-2",
                  "display": "FFD mammogram Breast Screening"
                },
                {
                  "code": "39154-0",
                  "display": "FFD mammogram Breast - bilateral Diagnostic"
                },
                {
                  "code": "42168-5",
                  "display": "FFD mammogram Breast - right Diagnostic"
                },
                {
                  "code": "42169-3",
                  "display": "FFD mammogram Breast - left Diagnostic"
                },
                {
                  "code": "42174-3",
                  "display": "FFD mammogram Breast - bilateral Screening"
                },
                {
                  "code": "42415-0",
                  "display": "MG Breast - bilateral Views Post Wire Placement"
                },
                {
                  "code": "42416-8",
                  "display": "MG Breast - left Views Post Wire Placement"
                },
                {
                  "code": "46335-6",
                  "display": "MG Breast - bilateral Single view"
                },
                {
                  "code": "46336-4",
                  "display": "MG Breast - left Single view"
                },
                {
                  "code": "46337-2",
                  "display": "MG Breast - right Single view"
                },
                {
                  "code": "46338-0",
                  "display": "MG Breast - unilateral Single view"
                },
                {
                  "code": "46339-8",
                  "display": "MG Breast - unilateral Views"
                },
                {
                  "code": "46342-2",
                  "display": "FFD mammogram Breast Views"
                },
                {
                  "code": "46350-5",
                  "display": "MG Breast - unilateral Diagnostic"
                },
                {
                  "code": "46351-3",
                  "display": "MG Breast - bilateral Displacement Views for Implant"
                },
                {
                  "code": "46354-7",
                  "display": "FFD mammogram Breast - right Screening"
                },
                {
                  "code": "46355-4",
                  "display": "FFD mammogram Breast - left Screening"
                },
                {
                  "code": "46356-2",
                  "display": "MG Breast - unilateral Screening"
                },
                {
                  "code": "46380-2",
                  "display": "MG Breast - unilateral Views for implant"
                },
                {
                  "code": "48475-8",
                  "display": "MG Breast - bilateral Diagnostic for implant"
                },
                {
                  "code": "48492-3",
                  "display": "MG Breast - bilateral Screening for implant"
                },
                {
                  "code": "69150-1",
                  "display": "MG Breast - left Diagnostic for implant"
                },
                {
                  "code": "69251-7",
                  "display": "MG Breast Views Post Wire Placement"
                },
                {
                  "code": "69259-0",
                  "display": "MG Breast - right Diagnostic for implant"
                },
                {
                  "code": "72137-3",
                  "display": "DBT Breast - right diagnostic"
                },
                {
                  "code": "72138-1",
                  "display": "DBT Breast - left diagnostic"
                },
                {
                  "code": "72139-9",
                  "display": "DBT Breast - bilateral diagnostic"
                },
                {
                  "code": "72140-7",
                  "display": "DBT Breast - right screening"
                },
                {
                  "code": "72141-5",
                  "display": "DBT Breast - left screening"
                },
                {
                  "code": "72142-3",
                  "display": "DBT Breast - bilateral screening"
                },
                {
                  "code": "86462-9",
                  "display": "DBT Breast - unilateral"
                },
                {
                  "code": "86463-7",
                  "display": "DBT Breast - bilateral"
                }
              ]
            }
          ]
        }
      },
      "request": {
        "method": "PUT",
        "url": "ValueSet/2.16.840.1.113883.3.464.1003.108.12.1018"
      }
    },
    {
      "resource": {
        "resourceType": "ValueSet",
        "id": "2.16.840.1.113883.3.464.1003.198.12.1068",
        "url": "http://cts.nlm.nih.gov/fhir/ValueSet/2.16.840.1.113883.3.464.1003.198.12.1068",
        "identifier": [
          {
            "system": "urn:ietf:rfc:3986",
            "value": "2.16.840.1.113883.3.464.1003.198.12.1068"
          }
        ],
        "version": "20171219",
        "name": "Historyofbilateralmastectomy",
        "title": "History of bilateral mastectomy",
        "status": "active",
        "publisher": "NLM",
        "compose": {
          "include": [
            {
              "system": "http://hl7.org/fhir/sid/icd-10",
              "version": "2019",
              "concept": [
                {
                  "code": "Z90.13",
                  "display": "Acquired absence of bilateral breasts and nipples"
                }
              ]
            },
            {
              "system": "http://snomed.info/sct",
              "version": "2018-03",
              "concept": [
                {
                  "code": "136071000119101",
                  "display": "History of bilateral prophylactic mastectomy (situation)"
                },
                {
                  "code": "428529004",
                  "display": "History of bilateral mastectomy (situation)"
                }
              ]
            }
          ]
        }
      },
      "request": {
        "method": "PUT",
        "url": "ValueSet/2.16.840.1.113883.3.464.1003.198.12.1068"
      }
    },
    {
      "resource": {
        "resourceType": "ValueSet",
        "id": "2.16.840.1.113883.3.117.1.7.1.292",
        "url": "http://cts.nlm.nih.gov/fhir/ValueSet/2.16.840.1.113883.3.117.1.7.1.292",
        "title": "Emergency Department Visit",
        "status": "active",
        "publisher": "The Joint Commission",
        "compose": {
          "include": [
            {
              "system": "http://snomed.info/sct",
              "version": "2019-03",
              "concept": [
                {
                  "code": "4525004",
                  "display": "Emergency department patient visit (procedure)"
                }
              ]
            }
          ]
        }
      },
      "request": {
        "method": "PUT",
        "url": "ValueSet/2.16.840.1.113883.3.117.1.7.1.292"
      }
    },
    {
      "resource": {
        "resourceType": "Library",
        "id": "library-FHIRHelpers-4.0.1",
        "text": {
          "status": "generated",
          "div": "<div xmlns=\"http://www.w3.org/1999/xhtml\"><table class=\"grid dict\"><tr><th scope=\"row\"><b>Id: </b></th><td style=\"padding-left: 25px; padding-right: 25px;\">library-FHIRHelpers-4.0.1</td></tr><tr><th scope=\"row\"><b>Type: </b></th><td style=\"padding-right: 25px;\"> logic-library </td></tr><tr><th scope=\"row\"><b>Version: </b></th><td style=\"padding-left: 25px; padding-right: 25px;\">4.0.1</td></tr><tr><th scope=\"row\"><b>Status: </b></th><td style=\"padding-left: 25px; padding-right: 25px;\">active</td></tr><tr style=\"vertical-align: top;\"><th scope=\"row\"><b>Content: </b></th><td style=\"padding-left: 25px; padding-right: 25px;\"><b>type: </b><span>text/cql</span></td></tr><tr><td colspan=\"2\" style=\"padding-left: 25px; padding-right: 25px;\"><pre><code class=\"language-cql\">library FHIRHelpers version '4.0.1'\n\nusing FHIR version '4.0.1'\n\ndefine function ToInterval(period FHIR.Period):\n    if period is null then\n        null\n    else\n        Interval[period.&quot;start&quot;.value, period.&quot;end&quot;.value]\n\ndefine function ToQuantity(quantity FHIR.Quantity):\n    if quantity is null then\n        null\n    else\n        System.Quantity { value: quantity.value.value, unit: quantity.unit.value }\n\ndefine function ToInterval(range FHIR.Range):\n    if range is null then\n        null\n    else\n        Interval[ToQuantity(range.low), ToQuantity(range.high)]\n\ndefine function ToCode(coding FHIR.Coding):\n    if coding is null then\n        null\n    else\n        System.Code {\n          code: coding.code.value,\n          system: coding.system.value,\n          version: coding.version.value,\n          display: coding.display.value\n        }\n\ndefine function ToConcept(concept FHIR.CodeableConcept):\n    if concept is null then\n        null\n    else\n        System.Concept {\n            codes: concept.coding C return ToCode(C),\n            display: concept.text.value\n        }\n\n\ndefine function ToString(value AccountStatus): value.value\ndefine function ToString(value ActionCardinalityBehavior): value.value\ndefine function ToString(value ActionConditionKind): value.value\ndefine function ToString(value ActionGroupingBehavior): value.value\ndefine function ToString(value ActionParticipantType): value.value\ndefine function ToString(value ActionPrecheckBehavior): value.value\ndefine function ToString(value ActionRelationshipType): value.value\ndefine function ToString(value ActionRequiredBehavior): value.value\ndefine function ToString(value ActionSelectionBehavior): value.value\ndefine function ToString(value ActivityDefinitionKind): value.value\ndefine function ToString(value ActivityParticipantType): value.value\ndefine function ToString(value AddressType): value.value\ndefine function ToString(value AddressUse): value.value\ndefine function ToString(value AdministrativeGender): value.value\ndefine function ToString(value AdverseEventActuality): value.value\ndefine function ToString(value AggregationMode): value.value\ndefine function ToString(value AllergyIntoleranceCategory): value.value\ndefine function ToString(value AllergyIntoleranceCriticality): value.value\ndefine function ToString(value AllergyIntoleranceSeverity): value.value\ndefine function ToString(value AllergyIntoleranceType): value.value\ndefine function ToString(value AppointmentStatus): value.value\ndefine function ToString(value AssertionDirectionType): value.value\ndefine function ToString(value AssertionOperatorType): value.value\ndefine function ToString(value AssertionResponseTypes): value.value\ndefine function ToString(value AuditEventAction): value.value\ndefine function ToString(value AuditEventAgentNetworkType): value.value\ndefine function ToString(value AuditEventOutcome): value.value\ndefine function ToString(value BindingStrength): value.value\ndefine function ToString(value BiologicallyDerivedProductCategory): value.value\ndefine function ToString(value BiologicallyDerivedProductStatus): value.value\ndefine function ToString(value BiologicallyDerivedProductStorageScale): value.value\ndefine function ToString(value BundleType): value.value\ndefine function ToString(value CapabilityStatementKind): value.value\ndefine function ToString(value CarePlanActivityKind): value.value\ndefine function ToString(value CarePlanActivityStatus): value.value\ndefine function ToString(value CarePlanIntent): value.value\ndefine function ToString(value CarePlanStatus): value.value\ndefine function ToString(value CareTeamStatus): value.value\ndefine function ToString(value CatalogEntryRelationType): value.value\ndefine function ToString(value ChargeItemDefinitionPriceComponentType): value.value\ndefine function ToString(value ChargeItemStatus): value.value\ndefine function ToString(value ClaimResponseStatus): value.value\ndefine function ToString(value ClaimStatus): value.value\ndefine function ToString(value ClinicalImpressionStatus): value.value\ndefine function ToString(value CodeSearchSupport): value.value\ndefine function ToString(value CodeSystemContentMode): value.value\ndefine function ToString(value CodeSystemHierarchyMeaning): value.value\ndefine function ToString(value CommunicationPriority): value.value\ndefine function ToString(value CommunicationRequestStatus): value.value\ndefine function ToString(value CommunicationStatus): value.value\ndefine function ToString(value CompartmentCode): value.value\ndefine function ToString(value CompartmentType): value.value\ndefine function ToString(value CompositionAttestationMode): value.value\ndefine function ToString(value CompositionStatus): value.value\ndefine function ToString(value ConceptMapEquivalence): value.value\ndefine function ToString(value ConceptMapGroupUnmappedMode): value.value\ndefine function ToString(value ConditionalDeleteStatus): value.value\ndefine function ToString(value ConditionalReadStatus): value.value\ndefine function ToString(value ConsentDataMeaning): value.value\ndefine function ToString(value ConsentProvisionType): value.value\ndefine function ToString(value ConsentState): value.value\ndefine function ToString(value ConstraintSeverity): value.value\ndefine function ToString(value ContactPointSystem): value.value\ndefine function ToString(value ContactPointUse): value.value\ndefine function ToString(value ContractPublicationStatus): value.value\ndefine function ToString(value ContractStatus): value.value\ndefine function ToString(value ContributorType): value.value\ndefine function ToString(value CoverageStatus): value.value\ndefine function ToString(value CurrencyCode): value.value\ndefine function ToString(value DayOfWeek): value.value\ndefine function ToString(value DaysOfWeek): value.value\ndefine function ToString(value DetectedIssueSeverity): value.value\ndefine function ToString(value DetectedIssueStatus): value.value\ndefine function ToString(value DeviceMetricCalibrationState): value.value\ndefine function ToString(value DeviceMetricCalibrationType): value.value\ndefine function ToString(value DeviceMetricCategory): value.value\ndefine function ToString(value DeviceMetricColor): value.value\ndefine function ToString(value DeviceMetricOperationalStatus): value.value\ndefine function ToString(value DeviceNameType): value.value\ndefine function ToString(value DeviceRequestStatus): value.value\ndefine function ToString(value DeviceUseStatementStatus): value.value\ndefine function ToString(value DiagnosticReportStatus): value.value\ndefine function ToString(value DiscriminatorType): value.value\ndefine function ToString(value DocumentConfidentiality): value.value\ndefine function ToString(value DocumentMode): value.value\ndefine function ToString(value DocumentReferenceStatus): value.value\ndefine function ToString(value DocumentRelationshipType): value.value\ndefine function ToString(value EligibilityRequestPurpose): value.value\ndefine function ToString(value EligibilityRequestStatus): value.value\ndefine function ToString(value EligibilityResponsePurpose): value.value\ndefine function ToString(value EligibilityResponseStatus): value.value\ndefine function ToString(value EnableWhenBehavior): value.value\ndefine function ToString(value EncounterLocationStatus): value.value\ndefine function ToString(value EncounterStatus): value.value\ndefine function ToString(value EndpointStatus): value.value\ndefine function ToString(value EnrollmentRequestStatus): value.value\ndefine function ToString(value EnrollmentResponseStatus): value.value\ndefine function ToString(value EpisodeOfCareStatus): value.value\ndefine function ToString(value EventCapabilityMode): value.value\ndefine function ToString(value EventTiming): value.value\ndefine function ToString(value EvidenceVariableType): value.value\ndefine function ToString(value ExampleScenarioActorType): value.value\ndefine function ToString(value ExplanationOfBenefitStatus): value.value\ndefine function ToString(value ExposureState): value.value\ndefine function ToString(value ExtensionContextType): value.value\ndefine function ToString(value FHIRAllTypes): value.value\ndefine function ToString(value FHIRDefinedType): value.value\ndefine function ToString(value FHIRDeviceStatus): value.value\ndefine function ToString(value FHIRResourceType): value.value\ndefine function ToString(value FHIRSubstanceStatus): value.value\ndefine function ToString(value FHIRVersion): value.value\ndefine function ToString(value FamilyHistoryStatus): value.value\ndefine function ToString(value FilterOperator): value.value\ndefine function ToString(value FlagStatus): value.value\ndefine function ToString(value GoalLifecycleStatus): value.value\ndefine function ToString(value GraphCompartmentRule): value.value\ndefine function ToString(value GraphCompartmentUse): value.value\ndefine function ToString(value GroupMeasure): value.value\ndefine function ToString(value GroupType): value.value\ndefine function ToString(value GuidanceResponseStatus): value.value\ndefine function ToString(value GuidePageGeneration): value.value\ndefine function ToString(value GuideParameterCode): value.value\ndefine function ToString(value HTTPVerb): value.value\ndefine function ToString(value IdentifierUse): value.value\ndefine function ToString(value IdentityAssuranceLevel): value.value\ndefine function ToString(value ImagingStudyStatus): value.value\ndefine function ToString(value ImmunizationEvaluationStatus): value.value\ndefine function ToString(value ImmunizationStatus): value.value\ndefine function ToString(value InvoicePriceComponentType): value.value\ndefine function ToString(value InvoiceStatus): value.value\ndefine function ToString(value IssueSeverity): value.value\ndefine function ToString(value IssueType): value.value\ndefine function ToString(value LinkType): value.value\ndefine function ToString(value LinkageType): value.value\ndefine function ToString(value ListMode): value.value\ndefine function ToString(value ListStatus): value.value\ndefine function ToString(value LocationMode): value.value\ndefine function ToString(value LocationStatus): value.value\ndefine function ToString(value MeasureReportStatus): value.value\ndefine function ToString(value MeasureReportType): value.value\ndefine function ToString(value MediaStatus): value.value\ndefine function ToString(value MedicationAdministrationStatus): value.value\ndefine function ToString(value MedicationDispenseStatus): value.value\ndefine function ToString(value MedicationKnowledgeStatus): value.value\ndefine function ToString(value MedicationRequestIntent): value.value\ndefine function ToString(value MedicationRequestPriority): value.value\ndefine function ToString(value MedicationRequestStatus): value.value\ndefine function ToString(value MedicationStatementStatus): value.value\ndefine function ToString(value MedicationStatus): value.value\ndefine function ToString(value MessageSignificanceCategory): value.value\ndefine function ToString(value Messageheader_Response_Request): value.value\ndefine function ToString(value MimeType): value.value\ndefine function ToString(value NameUse): value.value\ndefine function ToString(value NamingSystemIdentifierType): value.value\ndefine function ToString(value NamingSystemType): value.value\ndefine function ToString(value NarrativeStatus): value.value\ndefine function ToString(value NoteType): value.value\ndefine function ToString(value NutritiionOrderIntent): value.value\ndefine function ToString(value NutritionOrderStatus): value.value\ndefine function ToString(value ObservationDataType): value.value\ndefine function ToString(value ObservationRangeCategory): value.value\ndefine function ToString(value ObservationStatus): value.value\ndefine function ToString(value OperationKind): value.value\ndefine function ToString(value OperationParameterUse): value.value\ndefine function ToString(value OrientationType): value.value\ndefine function ToString(value ParameterUse): value.value\ndefine function ToString(value ParticipantRequired): value.value\ndefine function ToString(value ParticipantStatus): value.value\ndefine function ToString(value ParticipationStatus): value.value\ndefine function ToString(value PaymentNoticeStatus): value.value\ndefine function ToString(value PaymentReconciliationStatus): value.value\ndefine function ToString(value ProcedureStatus): value.value\ndefine function ToString(value PropertyRepresentation): value.value\ndefine function ToString(value PropertyType): value.value\ndefine function ToString(value ProvenanceEntityRole): value.value\ndefine function ToString(value PublicationStatus): value.value\ndefine function ToString(value QualityType): value.value\ndefine function ToString(value QuantityComparator): value.value\ndefine function ToString(value QuestionnaireItemOperator): value.value\ndefine function ToString(value QuestionnaireItemType): value.value\ndefine function ToString(value QuestionnaireResponseStatus): value.value\ndefine function ToString(value ReferenceHandlingPolicy): value.value\ndefine function ToString(value ReferenceVersionRules): value.value\ndefine function ToString(value ReferredDocumentStatus): value.value\ndefine function ToString(value RelatedArtifactType): value.value\ndefine function ToString(value RemittanceOutcome): value.value\ndefine function ToString(value RepositoryType): value.value\ndefine function ToString(value RequestIntent): value.value\ndefine function ToString(value RequestPriority): value.value\ndefine function ToString(value RequestStatus): value.value\ndefine function ToString(value ResearchElementType): value.value\ndefine function ToString(value ResearchStudyStatus): value.value\ndefine function ToString(value ResearchSubjectStatus): value.value\ndefine function ToString(value ResourceType): value.value\ndefine function ToString(value ResourceVersionPolicy): value.value\ndefine function ToString(value ResponseType): value.value\ndefine function ToString(value RestfulCapabilityMode): value.value\ndefine function ToString(value RiskAssessmentStatus): value.value\ndefine function ToString(value SPDXLicense): value.value\ndefine function ToString(value SearchComparator): value.value\ndefine function ToString(value SearchEntryMode): value.value\ndefine function ToString(value SearchModifierCode): value.value\ndefine function ToString(value SearchParamType): value.value\ndefine function ToString(value SectionMode): value.value\ndefine function ToString(value SequenceType): value.value\ndefine function ToString(value ServiceRequestIntent): value.value\ndefine function ToString(value ServiceRequestPriority): value.value\ndefine function ToString(value ServiceRequestStatus): value.value\ndefine function ToString(value SlicingRules): value.value\ndefine function ToString(value SlotStatus): value.value\ndefine function ToString(value SortDirection): value.value\ndefine function ToString(value SpecimenContainedPreference): value.value\ndefine function ToString(value SpecimenStatus): value.value\ndefine function ToString(value Status): value.value\ndefine function ToString(value StrandType): value.value\ndefine function ToString(value StructureDefinitionKind): value.value\ndefine function ToString(value StructureMapContextType): value.value\ndefine function ToString(value StructureMapGroupTypeMode): value.value\ndefine function ToString(value StructureMapInputMode): value.value\ndefine function ToString(value StructureMapModelMode): value.value\ndefine function ToString(value StructureMapSourceListMode): value.value\ndefine function ToString(value StructureMapTargetListMode): value.value\ndefine function ToString(value StructureMapTransform): value.value\ndefine function ToString(value SubscriptionChannelType): value.value\ndefine function ToString(value SubscriptionStatus): value.value\ndefine function ToString(value SupplyDeliveryStatus): value.value\ndefine function ToString(value SupplyRequestStatus): value.value\ndefine function ToString(value SystemRestfulInteraction): value.value\ndefine function ToString(value TaskIntent): value.value\ndefine function ToString(value TaskPriority): value.value\ndefine function ToString(value TaskStatus): value.value\ndefine function ToString(value TestReportActionResult): value.value\ndefine function ToString(value TestReportParticipantType): value.value\ndefine function ToString(value TestReportResult): value.value\ndefine function ToString(value TestReportStatus): value.value\ndefine function ToString(value TestScriptRequestMethodCode): value.value\ndefine function ToString(value TriggerType): value.value\ndefine function ToString(value TypeDerivationRule): value.value\ndefine function ToString(value TypeRestfulInteraction): value.value\ndefine function ToString(value UDIEntryType): value.value\ndefine function ToString(value UnitsOfTime): value.value\ndefine function ToString(value Use): value.value\ndefine function ToString(value VariableType): value.value\ndefine function ToString(value VisionBase): value.value\ndefine function ToString(value VisionEyes): value.value\ndefine function ToString(value VisionStatus): value.value\ndefine function ToString(value XPathUsageType): value.value\ndefine function ToString(value base64Binary): value.value\ndefine function ToBoolean(value boolean): value.value\ndefine function ToDate(value date): value.value\ndefine function ToDateTime(value dateTime): value.value\ndefine function ToDecimal(value decimal): value.value\ndefine function ToDateTime(value instant): value.value\ndefine function ToInteger(value integer): value.value\ndefine function ToString(value string): value.value\ndefine function ToTime(value time): value.value\ndefine function ToString(value uri): value.value\ndefine function ToString(value xhtml): value.value\n</code></pre>\n                    \n                    \n                </td>\n            </tr>\n        \n    </table>\n</div>"
        },
        "contained": [
          {
            "resourceType": "Device",
            "id": "cqf-tooling",
            "meta": {
              "profile": [
                "http://hl7.org/fhir/us/cqfmeasures/StructureDefinition/device-softwaresystem-cqfm"
              ]
            },
            "type": {
              "coding": [
                {
                  "system": "http://hl7.org/fhir/us/cqfmeasures/CodeSystem/software-system-type",
                  "code": "tooling"
                }
              ]
            },
            "version": [
              {
                "value": "1.1.0-SNAPSHOT"
              }
            ]
          }
        ],
        "extension": [
          {
            "url": "http://hl7.org/fhir/us/cqfmeasures/StructureDefinition/cqfm-softwaresystem",
            "valueReference": {
              "reference": "#cqf-tooling"
            }
          }
        ],
        "version": "4.0.1",
        "name": "FHIRHelpers",
        "status": "active",
        "experimental": true,
        "type": {
          "coding": [
            {
              "system": "http://terminology.hl7.org/CodeSystem/library-type",
              "code": "logic-library"
            }
          ]
        },
        "content": [
          {
            "contentType": "application/elm+xml",
            "data": ""
          },
          {
            "contentType": "text/cql",
            "data": ""
          }
        ]
      },
      "request": {
        "method": "PUT",
        "url": "Library/library-FHIRHelpers-4.0.1"
      }
    },
    {
      "resource": {
        "resourceType": "ValueSet",
        "id": "2.16.840.1.113883.3.464.1003.198.12.1005",
        "url": "http://cts.nlm.nih.gov/fhir/ValueSet/2.16.840.1.113883.3.464.1003.198.12.1005",
        "identifier": [
          {
            "system": "urn:ietf:rfc:3986",
            "value": "2.16.840.1.113883.3.464.1003.198.12.1005"
          }
        ],
        "version": "20171219",
        "name": "BilateralMastectomy",
        "title": "Bilateral Mastectomy",
        "status": "active",
        "publisher": "NLM",
        "compose": {
          "include": [
            {
              "system": "http://snomed.info/sct",
              "version": "2018-03",
              "concept": [
                {
                  "code": "14693006",
                  "display": "Bilateral subcutaneous mammectomy (procedure)"
                },
                {
                  "code": "14714006",
                  "display": "Bilateral mastectomy with excision of bilateral regional lymph nodes (procedure)"
                },
                {
                  "code": "17086001",
                  "display": "Modified radical mastectomy, bilateral (procedure)"
                },
                {
                  "code": "22418005",
                  "display": "Bilateral simple mastectomy (procedure)"
                },
                {
                  "code": "27865001",
                  "display": "Bilateral mastectomy (procedure)"
                },
                {
                  "code": "456903003",
                  "display": "Bilateral extended radical mastectomy (procedure)"
                },
                {
                  "code": "52314009",
                  "display": "Bilateral mastectomy extended simple (procedure)"
                },
                {
                  "code": "60633004",
                  "display": "Bilateral subcutaneous mammectomy with synchronous implant (procedure)"
                },
                {
                  "code": "726636007",
                  "display": "Prophylactic bilateral mastectomy (procedure)"
                },
                {
                  "code": "76468001",
                  "display": "Bilateral radical mastectomy (procedure)"
                }
              ]
            }
          ]
        }
      },
      "request": {
        "method": "PUT",
        "url": "ValueSet/2.16.840.1.113883.3.464.1003.198.12.1005"
      }
    },
    {
      "resource": {
        "resourceType": "ValueSet",
        "id": "2.16.840.1.113883.3.464.1003.198.12.1069",
        "url": "http://cts.nlm.nih.gov/fhir/ValueSet/2.16.840.1.113883.3.464.1003.198.12.1069",
        "identifier": [
          {
            "system": "urn:ietf:rfc:3986",
            "value": "2.16.840.1.113883.3.464.1003.198.12.1069"
          }
        ],
        "version": "20171216",
        "name": "StatusPostLeftMastectomy",
        "title": "Status Post Left Mastectomy",
        "status": "active",
        "publisher": "NLM",
        "compose": {
          "include": [
            {
              "system": "http://hl7.org/fhir/sid/icd-10",
              "version": "2019",
              "concept": [
                {
                  "code": "Z90.12",
                  "display": "Acquired absence of left breast and nipple"
                }
              ]
            },
            {
              "system": "http://snomed.info/sct",
              "version": "2018-03",
              "concept": [
                {
                  "code": "137671000119105",
                  "display": "History of prophylactic mastectomy of left breast (situation)"
                },
                {
                  "code": "429009003",
                  "display": "History of left mastectomy (situation)"
                }
              ]
            }
          ]
        }
      },
      "request": {
        "method": "PUT",
        "url": "ValueSet/2.16.840.1.113883.3.464.1003.198.12.1069"
      }
    }
  ]
}