{
  "resourceType": "CarePlan",
  "id": "prepopulate",
  "contained": [
    {
      "resourceType": "RequestGroup",
      "id": "prepopulate",
      "definition": [
        {
          "reference": "http://fhir.org/guides/cdc/opioid-cds/PlanDefinition/prepopulate|1.0.0"
        }
      ],
      "status": "draft",
      "intent": "proposal",
      "subject": {
        "reference": "OPA-Patient1"
      },
      "action": [
        {
          "extension": [
            {
              "url": "http://hl7.org/fhir/uv/sdc/StructureDefinition/sdc-questionnaire-prepopulate",
              "extension": [
                {
                  "url": "http://hl7.org/fhir/uv/sdc/StructureDefinition/sdc-questionnaire-prepopulate-parameter",
                  "valueString": "ClaimId"
                },
                {
                  "url": "http://hl7.org/fhir/uv/sdc/StructureDefinition/sdc-questionnaire-lookupQuestionnaire",
                  "valueUri": "http://hl7.org/fhir/Questionnaire/OutpatientPriorAuthorizationRequest"
                }
              ]
            }
          ],
          "title": "Prepopulate!",
          "description": "A simple recommendation to complete a prepopulated Questionnaire",
          "resource": {
            "reference": "Task/complete-questionnaire"
          }
        }
      ]
    },
    {
      "resourceType": "QuestionnaireResponse",
      "id": "1903",
      "questionnaire": {
        "reference": "http://hl7.org/fhir/Questionnaire/OutpatientPriorAuthorizationRequest"
      },
      "status": "completed",
      "subject": {
        "reference": "Patient/12345"
      },
      "authored": "2021-12-01",
      "item": [
        {
          "linkId": "1",
          "definition": "http://hl7.org/fhir/Organization",
          "text": "Facility Information",
          "item": [
            {
              "linkId": "1.1",
              "definition": "http://hl7.org/fhir/Organization#Organization.name",
              "text": "Name",
              "answer": [
                {
                  "valueString": "Test Facility"
                }
              ]
            },
            {
              "linkId": "1.2",
              "definition": "http://hl7.org/fhir/Organization#Organization.identifier",
              "text": "NPI"
            },
            {
              "linkId": "1.3",
              "definition": "http://hl7.org/fhir/Organization#Organization.identifier",
              "text": "PTAN"
            },
            {
              "linkId": "1.4",
              "text": "Contract/Region"
            }
          ]
        },
        {
          "linkId": "2",
          "definition": "http://hl7.org/fhir/Patient",
          "text": "Beneficiary Information",
          "item": [
            {
              "linkId": "2.1",
              "definition": "http://hl7.org/fhir/Patient#Patient.name.given",
              "text": "First Name",
              "answer": [
                {
                  "valueString": "Test"
                }
              ]
            },
            {
              "linkId": "2.2",
              "definition": "http://hl7.org/fhir/Patient#Patient.name.family",
              "text": "Last Name",
              "answer": [
                {
                  "valueString": "Man"
                }
              ]
            },
            {
              "linkId": "2.3",
              "definition": "http://hl7.org/fhir/Patient#Patient.birthDate",
              "text": "Date of Birth",
              "answer": [
                {
                  "valueDate": "1950-01-01"
                }
              ]
            },
            {
              "linkId": "2.4.0",
              "definition": "http://hl7.org/fhir/Patient#Patient.identifier.system",
              "answer": [
                {
                  "valueUri": "http://hl7.org/fhir/sid/us-medicare"
                }
              ]
            },
            {
              "linkId": "2.4",
              "definition": "http://hl7.org/fhir/Patient#Patient.identifier.value",
              "text": "Medicare ID",
              "answer": [
                {
                  "valueString": "123456789"
                }
              ]
            },
            {
              "linkId": "2.5",
              "definition": "http://hl7.org/fhir/Patient#Patient.gender",
              "text": "Gender",
              "answer": [
                {
                  "valueCoding": {
                    "system": "http://hl7.org/fhir/ValueSet/administrative-gender",
                    "code": "male",
                    "display": "Male"
                  }
                }
              ]
            }
          ]
        }
      ]
    },
    {
      "resourceType": "Organization",
      "id": "extract-1903.1",
      "name": "Test Facility"
    },
    {
      "resourceType": "Patient",
      "id": "extract-1903.2",
      "identifier": [
        {
          "system": "http://hl7.org/fhir/sid/us-medicare",
          "value": "123456789"
        }
      ],
      "name": [
        {
          "family": "Man",
          "given": [
            "Test"
          ]
        }
      ],
      "gender": "male",
      "birthDate": "1950-01-01"
    },
    {
      "resourceType": "Questionnaire",
      "id": "1903-OPA-Patient1",
      "meta": {
        "profile": [
          "http://hl7.org/fhir/us/davinci-dtr/StructureDefinition/dtr-questionnaire-r4"
        ]
      },
      "extension": [
        {
          "url": "http://hl7.org/fhir/StructureDefinition/cqf-library",
          "valueUri": "http://somewhere.org/fhir/uv/mycontentig/Library/OutpatientPriorAuthorizationPrepopulation"
        },
        {
          "url": "http://hl7.org/fhir/uv/sdc/StructureDefinition/sdc-questionnaire-prepopulate-subject",
          "valueReference": {
            "reference": "Patient/OPA-Patient1"
          }
        },
        {
          "url": "http://hl7.org/fhir/uv/crmi/StructureDefinition/crmi-messages",
          "valueReference": {
            "reference": "#populate-outcome-1903-OPA-Patient1"
          }
        }
      ],
      "url": "http://hl7.org/fhir/Questionnaire/OutpatientPriorAuthorizationRequest",
      "name": "OutpatientPriorAuthorizationRequest",
      "title": "Outpatient Prior Authorization Request",
      "status": "active",
      "date": "2022-01-04T00:00:00+00:00",
      "description": "Testing the form",
      "jurisdiction": [
        {
          "coding": [
            {
              "system": "urn:iso:std:iso:3166",
              "code": "US"
            }
          ]
        }
      ],
      "contact": [
        {
          "name": "Palmetto GBA"
        }
      ],
      "subjectType": [
        "Patient",
        "Organization",
        "Claim"
      ],
      "item": [
        {
          "linkId": "1",
          "text": "Facility Information",
          "type": "group",
          "item": [
            {
              "extension": [
                {
                  "url": "http://hl7.org/fhir/StructureDefinition/cqf-expression",
                  "valueString": "FacilityName"
                },
                {
                  "url": "http://hl7.org/fhir/StructureDefinition/cqf-expression-language",
                  "valueString": "text/cql.identifier"
                }
              ],
              "linkId": "1.1",
              "text": "Name",
              "type": "string",
              "required": true
            },
            {
              "extension": [
                {
                  "url": "http://hl7.org/fhir/StructureDefinition/cqf-expression",
                  "valueString": "FacilityNPI"
                },
                {
                  "url": "http://hl7.org/fhir/StructureDefinition/cqf-expression-language",
                  "valueString": "text/cql.identifier"
                }
              ],
              "linkId": "1.2",
              "text": "NPI",
              "type": "text",
              "required": true
            },
            {
              "linkId": "1.3",
              "text": "PTAN",
              "type": "string",
              "required": true
            },
            {
              "linkId": "1.4",
              "text": "Contract/Region",
              "type": "choice",
              "required": false
            }
          ]
        },
        {
          "linkId": "2",
          "text": "Beneficiary Information",
          "type": "group",
          "item": [
            {
              "extension": [
                {
                  "url": "http://hl7.org/fhir/StructureDefinition/cqf-expression",
                  "valueString": "BeneficiaryFirstName"
                },
                {
                  "url": "http://hl7.org/fhir/StructureDefinition/cqf-expression-language",
                  "valueString": "text/cql.identifier"
                },
                {
                  "url": "http://hl7.org/fhir/StructureDefinition/questionnaireresponse-author",
                  "valueReference": {
                    "reference": "http://cqframework.org/fhir/Device/clinical-quality-language"
                  }
                }
              ],
              "linkId": "2.1",
              "text": "First Name",
              "type": "string",
              "required": true,
              "initialString": "Peter"
            },
            {
              "extension": [
                {
                  "url": "http://hl7.org/fhir/StructureDefinition/cqf-expression",
                  "valueString": "BeneficiaryLastName"
                },
                {
                  "url": "http://hl7.org/fhir/StructureDefinition/cqf-expression-language",
                  "valueString": "text/cql.identifier"
                },
                {
                  "url": "http://hl7.org/fhir/StructureDefinition/questionnaireresponse-author",
                  "valueReference": {
                    "reference": "http://cqframework.org/fhir/Device/clinical-quality-language"
                  }
                }
              ],
              "linkId": "2.2",
              "text": "Last Name",
              "type": "text",
              "required": true,
              "initialString": "Chalmers"
            },
            {
              "extension": [
                {
                  "url": "http://hl7.org/fhir/StructureDefinition/cqf-expression",
                  "valueString": "BeneficiaryDOB"
                },
                {
                  "url": "http://hl7.org/fhir/StructureDefinition/cqf-expression-language",
                  "valueString": "text/cql.identifier"
                },
                {
                  "url": "http://hl7.org/fhir/StructureDefinition/questionnaireresponse-author",
                  "valueReference": {
                    "reference": "http://cqframework.org/fhir/Device/clinical-quality-language"
                  }
                }
              ],
              "linkId": "2.3",
              "text": "Date of Birth",
              "type": "date",
              "required": true,
              "initialDate": "1974-12-25"
            },
            {
              "extension": [
                {
                  "url": "http://hl7.org/fhir/StructureDefinition/cqf-expression",
                  "valueString": "BeneficiaryMedicareID"
                },
                {
                  "url": "http://hl7.org/fhir/StructureDefinition/cqf-expression-language",
                  "valueString": "text/cql.identifier"
                }
              ],
              "linkId": "2.4",
              "text": "Medicare ID",
              "type": "string",
              "required": true
            },
            {
              "extension": [
                {
                  "url": "http://hl7.org/fhir/StructureDefinition/cqf-expression",
                  "valueString": "BeneficiaryGender"
                },
                {
                  "url": "http://hl7.org/fhir/StructureDefinition/cqf-expression-language",
                  "valueString": "text/cql.identifier"
                },
                {
                  "url": "http://hl7.org/fhir/StructureDefinition/questionnaireresponse-author",
                  "valueReference": {
                    "reference": "http://cqframework.org/fhir/Device/clinical-quality-language"
                  }
                }
              ],
              "linkId": "2.5",
              "text": "Gender",
              "type": "choice",
              "required": true,
              "initialString": "male"
            }
          ]
        },
        {
          "linkId": "3",
          "text": "Operating Physician Information",
          "type": "group",
          "item": [
            {
              "extension": [
                {
                  "url": "http://hl7.org/fhir/StructureDefinition/cqf-expression",
                  "valueString": "OperatingPhysicianFirstName"
                },
                {
                  "url": "http://hl7.org/fhir/StructureDefinition/cqf-expression-language",
                  "valueString": "text/cql.identifier"
                }
              ],
              "linkId": "3.1",
              "text": "First Name",
              "type": "string",
              "required": true
            },
            {
              "extension": [
                {
                  "url": "http://hl7.org/fhir/StructureDefinition/cqf-expression",
                  "valueString": "OperatingPhysicianLastName"
                },
                {
                  "url": "http://hl7.org/fhir/StructureDefinition/cqf-expression-language",
                  "valueString": "text/cql.identifier"
                }
              ],
              "linkId": "3.2",
              "text": "Last Name",
              "type": "text",
              "required": true
            },
            {
              "extension": [
                {
                  "url": "http://hl7.org/fhir/StructureDefinition/cqf-expression",
                  "valueString": "OperatingPhysicianNPI"
                },
                {
                  "url": "http://hl7.org/fhir/StructureDefinition/cqf-expression-language",
                  "valueString": "text/cql.identifier"
                }
              ],
              "linkId": "3.3",
              "text": "NPI",
              "type": "string",
              "required": true
            },
            {
              "linkId": "3.4",
              "text": "PTAN",
              "type": "string",
              "required": true
            },
            {
              "linkId": "3.5",
              "text": "Address",
              "type": "group",
              "required": true,
              "item": [
                {
                  "extension": [
                    {
                      "url": "http://hl7.org/fhir/StructureDefinition/cqf-expression",
                      "valueString": "OperatingPhysicianAddress1"
                    },
                    {
                      "url": "http://hl7.org/fhir/StructureDefinition/cqf-expression-language",
                      "valueString": "text/cql.identifier"
                    }
                  ],
                  "linkId": "3.5.1",
                  "text": "Address1",
                  "type": "string",
                  "required": true
                },
                {
                  "extension": [
                    {
                      "url": "http://hl7.org/fhir/StructureDefinition/cqf-expression",
                      "valueString": "OperatingPhysicianAddress2"
                    },
                    {
                      "url": "http://hl7.org/fhir/StructureDefinition/cqf-expression-language",
                      "valueString": "text/cql.identifier"
                    }
                  ],
                  "linkId": "3.5.2",
                  "text": "Address2",
                  "type": "string",
                  "required": false
                },
                {
                  "extension": [
                    {
                      "url": "http://hl7.org/fhir/StructureDefinition/cqf-expression",
                      "valueString": "OperatingPhysicianAddressCity"
                    },
                    {
                      "url": "http://hl7.org/fhir/StructureDefinition/cqf-expression-language",
                      "valueString": "text/cql.identifier"
                    }
                  ],
                  "linkId": "3.5.3",
                  "text": "City",
                  "type": "string",
                  "required": true
                },
                {
                  "extension": [
                    {
                      "url": "http://hl7.org/fhir/StructureDefinition/cqf-expression",
                      "valueString": "OperatingPhysicianAddressState"
                    },
                    {
                      "url": "http://hl7.org/fhir/StructureDefinition/cqf-expression-language",
                      "valueString": "text/cql.identifier"
                    }
                  ],
                  "linkId": "3.5.4",
                  "text": "State",
                  "type": "string",
                  "required": true
                },
                {
                  "extension": [
                    {
                      "url": "http://hl7.org/fhir/StructureDefinition/cqf-expression",
                      "valueString": "OperatingPhysicianAddressZip"
                    },
                    {
                      "url": "http://hl7.org/fhir/StructureDefinition/cqf-expression-language",
                      "valueString": "text/cql.identifier"
                    }
                  ],
                  "linkId": "3.5.5",
                  "text": "Zip",
                  "type": "string",
                  "required": true
                }
              ]
            }
          ]
        },
        {
          "linkId": "4",
          "text": "Attending Physician Information",
          "type": "group",
          "item": [
            {
              "extension": [
                {
                  "url": "http://hl7.org/fhir/StructureDefinition/cqf-expression",
                  "valueString": "AttendingPhysicianSame"
                },
                {
                  "url": "http://hl7.org/fhir/StructureDefinition/cqf-expression-language",
                  "valueString": "text/cql.identifier"
                }
              ],
              "linkId": "4.1",
              "text": "Same as Operating Physician?",
              "type": "boolean",
              "required": false
            },
            {
              "linkId": "4.2",
              "text": "Attending Physician",
              "type": "group",
              "enableWhen": [
                {
                  "question": "4.1",
                  "answerBoolean": false
                }
              ],
              "item": [
                {
                  "extension": [
                    {
                      "url": "http://hl7.org/fhir/StructureDefinition/cqf-expression",
                      "valueString": "AttendingPhysicianFirstName"
                    },
                    {
                      "url": "http://hl7.org/fhir/StructureDefinition/cqf-expression-language",
                      "valueString": "text/cql.identifier"
                    }
                  ],
                  "linkId": "4.2.1",
                  "text": "First Name",
                  "type": "string",
                  "required": true
                },
                {
                  "extension": [
                    {
                      "url": "http://hl7.org/fhir/StructureDefinition/cqf-expression",
                      "valueString": "AttendingPhysicianLastName"
                    },
                    {
                      "url": "http://hl7.org/fhir/StructureDefinition/cqf-expression-language",
                      "valueString": "text/cql.identifier"
                    }
                  ],
                  "linkId": "4.2.2",
                  "text": "Last Name",
                  "type": "text",
                  "required": true
                },
                {
                  "extension": [
                    {
                      "url": "http://hl7.org/fhir/StructureDefinition/cqf-expression",
                      "valueString": "AttendingPhysicianNPI"
                    },
                    {
                      "url": "http://hl7.org/fhir/StructureDefinition/cqf-expression-language",
                      "valueString": "text/cql.identifier"
                    }
                  ],
                  "linkId": "4.2.3",
                  "text": "NPI",
                  "type": "string",
                  "required": true
                },
                {
                  "linkId": "4.2.4",
                  "text": "PTAN",
                  "type": "string",
                  "required": true
                },
                {
                  "linkId": "4.2.5",
                  "text": "Address",
                  "type": "group",
                  "required": true,
                  "item": [
                    {
                      "extension": [
                        {
                          "url": "http://hl7.org/fhir/StructureDefinition/cqf-expression",
                          "valueString": "AttendingPhysicianAddress1"
                        },
                        {
                          "url": "http://hl7.org/fhir/StructureDefinition/cqf-expression-language",
                          "valueString": "text/cql.identifier"
                        }
                      ],
                      "linkId": "4.2.5.1",
                      "text": "Address1",
                      "type": "string",
                      "required": true
                    },
                    {
                      "extension": [
                        {
                          "url": "http://hl7.org/fhir/StructureDefinition/cqf-expression",
                          "valueString": "AttendingPhysicianAddress2"
                        },
                        {
                          "url": "http://hl7.org/fhir/StructureDefinition/cqf-expression-language",
                          "valueString": "text/cql.identifier"
                        }
                      ],
                      "linkId": "4.2.5.2",
                      "text": "Address2",
                      "type": "string",
                      "required": false
                    },
                    {
                      "extension": [
                        {
                          "url": "http://hl7.org/fhir/StructureDefinition/cqf-expression",
                          "valueString": "AttendingPhysicianAddressCity"
                        },
                        {
                          "url": "http://hl7.org/fhir/StructureDefinition/cqf-expression-language",
                          "valueString": "text/cql.identifier"
                        }
                      ],
                      "linkId": "4.2.5.3",
                      "text": "City",
                      "type": "string",
                      "required": true
                    },
                    {
                      "extension": [
                        {
                          "url": "http://hl7.org/fhir/StructureDefinition/cqf-expression",
                          "valueString": "AttendingPhysicianAddressState"
                        },
                        {
                          "url": "http://hl7.org/fhir/StructureDefinition/cqf-expression-language",
                          "valueString": "text/cql.identifier"
                        }
                      ],
                      "linkId": "4.2.5.4",
                      "text": "State",
                      "type": "string",
                      "required": true
                    },
                    {
                      "extension": [
                        {
                          "url": "http://hl7.org/fhir/StructureDefinition/cqf-expression",
                          "valueString": "AttendingPhysicianAddressZip"
                        },
                        {
                          "url": "http://hl7.org/fhir/StructureDefinition/cqf-expression-language",
                          "valueString": "text/cql.identifier"
                        }
                      ],
                      "linkId": "4.2.5.5",
                      "text": "Zip",
                      "type": "string",
                      "required": true
                    }
                  ]
                }
              ]
            }
          ]
        }
      ]
    },
    {
      "resourceType": "Task",
      "id": "complete-questionnaire",
      "definitionUri": "http://fhir.org/guides/cdc/opioid-cds/ActivityDefinition/complete-questionnaire",
      "basedOn": [
        {
          "reference": "#RequestGroup/prepopulate"
        }
      ],
      "status": "draft",
      "intent": "proposal",
      "description": "Create a task to complete a Questionnaire.",
      "focus": {
        "reference": "Questionnaire/1903-OPA-Patient1"
      },
      "for": {
        "reference": "OPA-Patient1"
      }
    },
    {
      "resourceType": "OperationOutcome",
      "id": "populate-outcome-1903-OPA-Patient1",
      "issue": [
        {
          "severity": "error",
          "code": "exception",
          "diagnostics": "Error encountered evaluating expression (FacilityName) for item (1.1): Could not resolve type AdverseEventActuality. Primary package(s) for this resolver are org.hl7.fhir.dstu3.model"
        },
        {
          "severity": "error",
          "code": "exception",
          "diagnostics": "Error encountered evaluating expression (FacilityNPI) for item (1.2): Could not resolve type AdverseEventActuality. Primary package(s) for this resolver are org.hl7.fhir.dstu3.model"
        },
        {
          "severity": "error",
          "code": "exception",
          "diagnostics": "Error encountered evaluating expression (BeneficiaryMedicareID) for item (2.4): Could not resolve type AdverseEventActuality. Primary package(s) for this resolver are org.hl7.fhir.dstu3.model"
        },
        {
          "severity": "error",
          "code": "exception",
          "diagnostics": "Error encountered evaluating expression (OperatingPhysicianFirstName) for item (3.1): Could not resolve type AdverseEventActuality. Primary package(s) for this resolver are org.hl7.fhir.dstu3.model"
        },
        {
          "severity": "error",
          "code": "exception",
          "diagnostics": "Error encountered evaluating expression (OperatingPhysicianLastName) for item (3.2): Could not resolve type AdverseEventActuality. Primary package(s) for this resolver are org.hl7.fhir.dstu3.model"
        },
        {
          "severity": "error",
          "code": "exception",
          "diagnostics": "Error encountered evaluating expression (OperatingPhysicianNPI) for item (3.3): Could not resolve type AdverseEventActuality. Primary package(s) for this resolver are org.hl7.fhir.dstu3.model"
        },
        {
          "severity": "error",
          "code": "exception",
          "diagnostics": "Error encountered evaluating expression (OperatingPhysicianAddress1) for item (3.5.1): Could not resolve type AdverseEventActuality. Primary package(s) for this resolver are org.hl7.fhir.dstu3.model"
        },
        {
          "severity": "error",
          "code": "exception",
          "diagnostics": "Error encountered evaluating expression (OperatingPhysicianAddress2) for item (3.5.2): Could not resolve type AdverseEventActuality. Primary package(s) for this resolver are org.hl7.fhir.dstu3.model"
        },
        {
          "severity": "error",
          "code": "exception",
          "diagnostics": "Error encountered evaluating expression (OperatingPhysicianAddressCity) for item (3.5.3): Could not resolve type AdverseEventActuality. Primary package(s) for this resolver are org.hl7.fhir.dstu3.model"
        },
        {
          "severity": "error",
          "code": "exception",
          "diagnostics": "Error encountered evaluating expression (OperatingPhysicianAddressState) for item (3.5.4): Could not resolve type AdverseEventActuality. Primary package(s) for this resolver are org.hl7.fhir.dstu3.model"
        },
        {
          "severity": "error",
          "code": "exception",
          "diagnostics": "Error encountered evaluating expression (OperatingPhysicianAddressZip) for item (3.5.5): Could not resolve type AdverseEventActuality. Primary package(s) for this resolver are org.hl7.fhir.dstu3.model"
        },
        {
          "severity": "error",
          "code": "exception",
          "diagnostics": "Error encountered evaluating expression (AttendingPhysicianSame) for item (4.1): Could not resolve type AdverseEventActuality. Primary package(s) for this resolver are org.hl7.fhir.dstu3.model"
        },
        {
          "severity": "error",
          "code": "exception",
          "diagnostics": "Error encountered evaluating expression (AttendingPhysicianFirstName) for item (4.2.1): Could not resolve type AdverseEventActuality. Primary package(s) for this resolver are org.hl7.fhir.dstu3.model"
        },
        {
          "severity": "error",
          "code": "exception",
          "diagnostics": "Error encountered evaluating expression (AttendingPhysicianLastName) for item (4.2.2): Could not resolve type AdverseEventActuality. Primary package(s) for this resolver are org.hl7.fhir.dstu3.model"
        },
        {
          "severity": "error",
          "code": "exception",
          "diagnostics": "Error encountered evaluating expression (AttendingPhysicianNPI) for item (4.2.3): Could not resolve type AdverseEventActuality. Primary package(s) for this resolver are org.hl7.fhir.dstu3.model"
        },
        {
          "severity": "error",
          "code": "exception",
          "diagnostics": "Error encountered evaluating expression (AttendingPhysicianAddress1) for item (4.2.5.1): Could not resolve type AdverseEventActuality. Primary package(s) for this resolver are org.hl7.fhir.dstu3.model"
        },
        {
          "severity": "error",
          "code": "exception",
          "diagnostics": "Error encountered evaluating expression (AttendingPhysicianAddress2) for item (4.2.5.2): Could not resolve type AdverseEventActuality. Primary package(s) for this resolver are org.hl7.fhir.dstu3.model"
        },
        {
          "severity": "error",
          "code": "exception",
          "diagnostics": "Error encountered evaluating expression (AttendingPhysicianAddressCity) for item (4.2.5.3): Could not resolve type AdverseEventActuality. Primary package(s) for this resolver are org.hl7.fhir.dstu3.model"
        },
        {
          "severity": "error",
          "code": "exception",
          "diagnostics": "Error encountered evaluating expression (AttendingPhysicianAddressState) for item (4.2.5.4): Could not resolve type AdverseEventActuality. Primary package(s) for this resolver are org.hl7.fhir.dstu3.model"
        },
        {
          "severity": "error",
          "code": "exception",
          "diagnostics": "Error encountered evaluating expression (AttendingPhysicianAddressZip) for item (4.2.5.5): Could not resolve type AdverseEventActuality. Primary package(s) for this resolver are org.hl7.fhir.dstu3.model"
        }
      ]
    }
  ],
  "extension": [
    {
      "url": "http://hl7.org/fhir/uv/crmi/StructureDefinition/crmi-messages",
      "valueReference": {
        "reference": "#populate-outcome-1903-OPA-Patient1"
      }
    }
  ],
  "definition": [
    {
      "reference": "http://fhir.org/guides/cdc/opioid-cds/PlanDefinition/prepopulate|1.0.0"
    }
  ],
  "status": "draft",
  "intent": "proposal",
  "subject": {
    "reference": "OPA-Patient1"
  },
  "supportingInfo": [
    {
      "reference": "#QuestionnaireResponse/1903"
    },
    {
      "reference": "#Organization/extract-1903.1"
    },
    {
      "reference": "#Patient/extract-1903.2"
    }
  ],
  "activity": [
    {
      "reference": {
        "reference": "#RequestGroup/prepopulate"
      }
    }
  ]
}