{"resourceType":"Bundle","id":"CMS165FHIRControllingHighBloodPressure-bundle","type":"transaction","timestamp":"2025-07-15T07:40:23.767-06:00","entry":[{"resource":{"resourceType":"Library","id":"CMS165FHIRControllingHighBloodPressure","meta":{"profile":["http://hl7.org/fhir/uv/crmi/StructureDefinition/crmi-shareablelibrary","http://hl7.org/fhir/uv/crmi/StructureDefinition/crmi-computablelibrary","http://hl7.org/fhir/uv/crmi/StructureDefinition/crmi-publishablelibrary","http://hl7.org/fhir/uv/crmi/StructureDefinition/crmi-executablelibrary","http://hl7.org/fhir/uv/cql/StructureDefinition/cql-library","http://hl7.org/fhir/uv/cql/StructureDefinition/elm-json-library","http://hl7.org/fhir/uv/cql/StructureDefinition/elm-xml-library"]},"language":"en","text":{"status":"extensions","div":"<div xmlns=\"http://www.w3.org/1999/xhtml\">\n    <table class=\"grid dict\">\n        \n        \n        <tr>\n            <th scope=\"row\"><b>Title: </b></th>\n            <td style=\"padding-left: 4px;\">CMS165FHIRControllingHighBloodPressure</td>\n        </tr>\n        \n\n        \n        \n        <tr>\n            <th scope=\"row\"><b>Id: </b></th>\n            <td style=\"padding-left: 4px;\">CMS165FHIRControllingHighBloodPressure</td>\n        </tr>\n        \n\n        \n        \n        <tr>\n            <th scope=\"row\"><b>Version: </b></th>\n            <td style=\"padding-left: 4px;\">0.3.000</td>\n        </tr>\n        \n\n        \n        <tr>\n            <th scope=\"row\"><b>Url: </b></th>\n            <td style=\"padding-left: 4px;\">https://madie.cms.gov/Library/CMS165FHIRControllingHighBloodPressure</td>\n        </tr>\n        \n\n        \n        <tr>\n            <th scope=\"row\">\n                <b>\n                    \n                        official\n                    \n                </b>\n            </th>\n            <td style=\"padding-left: 4px;\">\n                \n                <p style=\"margin-bottom: 5px;\">\n                    <span>CMS165FHIRControllingHighBloodPressure</span>\n                </p>\n                \n            </td>\n        </tr>\n        \n\n        \n\n        \n\n        \n\n        \n        <tr>\n            <th scope=\"row\"><b>Type: </b></th>\n            <td style=\"padding-left: 4px;\">\n                \n                    \n                        \n                        <p style=\"margin-bottom: 5px;\">\n                            <b>system: </b> <span>http://terminology.hl7.org/CodeSystem/library-type</span>\n                        </p>\n                        \n                        \n                        <p style=\"margin-bottom: 5px;\">\n                            <b>code: </b> <span>logic-library</span>\n                        </p>\n                        \n                        \n                    \n                \n                \n            </td>\n        </tr>\n        \n\n        \n\n        \n        <tr>\n            <th scope=\"row\"><b>Date: </b></th>\n            <td style=\"padding-left: 4px;\">2025-04-15T22:24:12+00:00</td>\n        </tr>\n        \n\n        \n        <tr>\n            <th scope=\"row\"><b>Publisher: </b></th>\n            <td style=\"padding-left: 4px;\">National Committee for Quality Assurance</td>\n        </tr>\n        \n\n        \n        <tr>\n            <th scope=\"row\"><b>Description: </b></th>\n            <td style=\"padding-left: 4px;\">CMS165FHIRControllingHighBloodPressure</td>\n        </tr>\n        \n\n        \n\n        \n\n        \n\n        \n\n        \n\n        \n\n        \n\n        \n\n        \n\n        \n\n        \n        <tr>\n            <th scope=\"row\"><b>Related Artifacts: </b></th>\n            <td style=\"padding-left: 4px;\">\n                \n                \n                \n                <p><b>Dependencies</b></p>\n                <ul>\n                  \n                    <li>https://madie.cms.gov/Library/SupplementalDataElements|5.1.000</li>\n                  \n                    <li>https://madie.cms.gov/Library/Status|1.13.000</li>\n                  \n                    <li>https://madie.cms.gov/Library/FHIRHelpers|4.4.000</li>\n                  \n                    <li>https://madie.cms.gov/Library/QICoreCommon|4.0.000</li>\n                  \n                    <li>https://madie.cms.gov/Library/AdultOutpatientEncounters|4.16.000</li>\n                  \n                    <li>https://madie.cms.gov/Library/Hospice|6.15.000</li>\n                  \n                    <li>https://madie.cms.gov/Library/AdvancedIllnessandFrailty|1.23.000</li>\n                  \n                    <li>https://madie.cms.gov/Library/PalliativeCare|1.15.000</li>\n                  \n                    <li>http://loinc.org</li>\n                  \n                    <li>http://cts.nlm.nih.gov/fhir/ValueSet/2.16.840.1.113883.3.464.1003.104.12.1011</li>\n                  \n                    <li>http://cts.nlm.nih.gov/fhir/ValueSet/2.16.840.1.113883.3.526.3.378</li>\n                  \n                    <li>http://cts.nlm.nih.gov/fhir/ValueSet/2.16.840.1.113883.3.526.3.353</li>\n                  \n                    <li>http://cts.nlm.nih.gov/fhir/ValueSet/2.16.840.1.113883.3.464.1003.109.12.1029</li>\n                  \n                    <li>http://cts.nlm.nih.gov/fhir/ValueSet/2.16.840.1.113883.3.526.3.1002</li>\n                  \n                    <li>http://cts.nlm.nih.gov/fhir/ValueSet/2.16.840.1.113883.3.464.1003.109.12.1012</li>\n                  \n                    <li>http://cts.nlm.nih.gov/fhir/ValueSet/2.16.840.1.113883.3.464.1003.109.12.1013</li>\n                  \n                    <li>http://cts.nlm.nih.gov/fhir/ValueSet/2.16.840.1.113883.3.464.1003.109.12.1014</li>\n                  \n                </ul>\n                \n                \n                \n                \n                \n            </td>\n        </tr>\n        \n\n        \n\n        \n        <tr>\n          <th scope=\"row\"><b>Data Requirements:</b></th>\n          <td style=\"padding-left: 4px;\">\n            <table class=\"grid-dict\">\n              <tr><th><b>Type</b></th><th><b>Profile</b></th><th><b>MS</b></th><th><b>Code Filter</b></th></tr>\n              \n                <tr>\n                  <th>Patient</th>\n                  <th>http://hl7.org/fhir/us/qicore/StructureDefinition/qicore-patient</th>\n                  <th>;;</th>\n                  <th>\n                    \n                  </th>\n                </tr>\n              \n                <tr>\n                  <th>Observation</th>\n                  <th>http://hl7.org/fhir/us/core/StructureDefinition/us-core-blood-pressure</th>\n                  <th>;;;;</th>\n                  <th>\n                    \n                  </th>\n                </tr>\n              \n                <tr>\n                  <th>Condition</th>\n                  <th>http://hl7.org/fhir/us/qicore/StructureDefinition/qicore-condition-problems-health-concerns</th>\n                  <th>;</th>\n                  <th>\n                    \n                      <b>code filter: </b>\n                      \n                      <br/>\n                      \n                      \n                      <span style=\"padding-left: 4px;\">\n                          <b>path: </b><span>code</span>\n                      </span>\n                      \n                      <br/>\n                      \n                      \n                      \n                      <span style=\"padding-left: 4px;\">\n                          <b>value set: </b><span>http://cts.nlm.nih.gov/fhir/ValueSet/2.16.840.1.113883.3.464.1003.104.12.1011</span>\n                      </span>\n                      \n                      \n                    \n                  </th>\n                </tr>\n              \n                <tr>\n                  <th>Condition</th>\n                  <th>http://hl7.org/fhir/us/qicore/StructureDefinition/qicore-condition-problems-health-concerns</th>\n                  <th>;</th>\n                  <th>\n                    \n                      <b>code filter: </b>\n                      \n                      <br/>\n                      \n                      \n                      <span style=\"padding-left: 4px;\">\n                          <b>path: </b><span>code</span>\n                      </span>\n                      \n                      <br/>\n                      \n                      \n                      \n                      <span style=\"padding-left: 4px;\">\n                          <b>value set: </b><span>http://cts.nlm.nih.gov/fhir/ValueSet/2.16.840.1.113883.3.464.1003.1165</span>\n                      </span>\n                      \n                      \n                    \n                  </th>\n                </tr>\n              \n                <tr>\n                  <th>Condition</th>\n                  <th>http://hl7.org/fhir/us/qicore/StructureDefinition/qicore-condition-problems-health-concerns</th>\n                  <th>;</th>\n                  <th>\n                    \n                      <b>code filter: </b>\n                      \n                      <br/>\n                      \n                      \n                      <span style=\"padding-left: 4px;\">\n                          <b>path: </b><span>code</span>\n                      </span>\n                      \n                      <br/>\n                      \n                      \n                      \n                      <span style=\"padding-left: 4px;\">\n                          <b>value set: </b><span>http://cts.nlm.nih.gov/fhir/ValueSet/2.16.840.1.113883.3.526.3.378</span>\n                      </span>\n                      \n                      \n                    \n                  </th>\n                </tr>\n              \n                <tr>\n                  <th>Condition</th>\n                  <th>http://hl7.org/fhir/us/qicore/StructureDefinition/qicore-condition-problems-health-concerns</th>\n                  <th>;</th>\n                  <th>\n                    \n                      <b>code filter: </b>\n                      \n                      <br/>\n                      \n                      \n                      <span style=\"padding-left: 4px;\">\n                          <b>path: </b><span>code</span>\n                      </span>\n                      \n                      <br/>\n                      \n                      \n                      \n                      <span style=\"padding-left: 4px;\">\n                          <b>value set: </b><span>http://cts.nlm.nih.gov/fhir/ValueSet/2.16.840.1.113883.3.526.3.353</span>\n                      </span>\n                      \n                      \n                    \n                  </th>\n                </tr>\n              \n                <tr>\n                  <th>Condition</th>\n                  <th>http://hl7.org/fhir/us/qicore/StructureDefinition/qicore-condition-problems-health-concerns</th>\n                  <th>;</th>\n                  <th>\n                    \n                      <b>code filter: </b>\n                      \n                      <br/>\n                      \n                      \n                      <span style=\"padding-left: 4px;\">\n                          <b>path: </b><span>code</span>\n                      </span>\n                      \n                      <br/>\n                      \n                      \n                      \n                      <span style=\"padding-left: 4px;\">\n                          <b>value set: </b><span>http://cts.nlm.nih.gov/fhir/ValueSet/2.16.840.1.113883.3.464.1003.109.12.1029</span>\n                      </span>\n                      \n                      \n                    \n                  </th>\n                </tr>\n              \n                <tr>\n                  <th>Condition</th>\n                  <th>http://hl7.org/fhir/us/qicore/StructureDefinition/qicore-condition-problems-health-concerns</th>\n                  <th>;</th>\n                  <th>\n                    \n                      <b>code filter: </b>\n                      \n                      <br/>\n                      \n                      \n                      <span style=\"padding-left: 4px;\">\n                          <b>path: </b><span>code</span>\n                      </span>\n                      \n                      <br/>\n                      \n                      \n                      \n                      <span style=\"padding-left: 4px;\">\n                          <b>value set: </b><span>http://cts.nlm.nih.gov/fhir/ValueSet/2.16.840.1.113883.3.526.3.1002</span>\n                      </span>\n                      \n                      \n                    \n                  </th>\n                </tr>\n              \n                <tr>\n                  <th>Condition</th>\n                  <th>http://hl7.org/fhir/us/qicore/StructureDefinition/qicore-condition-problems-health-concerns</th>\n                  <th>;</th>\n                  <th>\n                    \n                      <b>code filter: </b>\n                      \n                      <br/>\n                      \n                      \n                      <span style=\"padding-left: 4px;\">\n                          <b>path: </b><span>code</span>\n                      </span>\n                      \n                      <br/>\n                      \n                      \n                      \n                      <span style=\"padding-left: 4px;\">\n                          <b>value set: </b><span>http://cts.nlm.nih.gov/fhir/ValueSet/2.16.840.1.113883.3.464.1003.113.12.1074</span>\n                      </span>\n                      \n                      \n                    \n                  </th>\n                </tr>\n              \n                <tr>\n                  <th>Condition</th>\n                  <th>http://hl7.org/fhir/us/qicore/StructureDefinition/qicore-condition-problems-health-concerns</th>\n                  <th>;</th>\n                  <th>\n                    \n                      <b>code filter: </b>\n                      \n                      <br/>\n                      \n                      \n                      <span style=\"padding-left: 4px;\">\n                          <b>path: </b><span>code</span>\n                      </span>\n                      \n                      <br/>\n                      \n                      \n                      \n                      <span style=\"padding-left: 4px;\">\n                          <b>value set: </b><span>http://cts.nlm.nih.gov/fhir/ValueSet/2.16.840.1.113883.3.464.1003.110.12.1082</span>\n                      </span>\n                      \n                      \n                    \n                  </th>\n                </tr>\n              \n                <tr>\n                  <th>Condition</th>\n                  <th>http://hl7.org/fhir/us/qicore/StructureDefinition/qicore-condition-problems-health-concerns</th>\n                  <th>;</th>\n                  <th>\n                    \n                      <b>code filter: </b>\n                      \n                      <br/>\n                      \n                      \n                      <span style=\"padding-left: 4px;\">\n                          <b>path: </b><span>code</span>\n                      </span>\n                      \n                      <br/>\n                      \n                      \n                      \n                      <span style=\"padding-left: 4px;\">\n                          <b>value set: </b><span>http://cts.nlm.nih.gov/fhir/ValueSet/2.16.840.1.113883.3.464.1003.1167</span>\n                      </span>\n                      \n                      \n                    \n                  </th>\n                </tr>\n              \n                <tr>\n                  <th>Condition</th>\n                  <th>http://hl7.org/fhir/us/qicore/StructureDefinition/qicore-condition-encounter-diagnosis</th>\n                  <th>;</th>\n                  <th>\n                    \n                      <b>code filter: </b>\n                      \n                      <br/>\n                      \n                      \n                      <span style=\"padding-left: 4px;\">\n                          <b>path: </b><span>code</span>\n                      </span>\n                      \n                      <br/>\n                      \n                      \n                      \n                      <span style=\"padding-left: 4px;\">\n                          <b>value set: </b><span>http://cts.nlm.nih.gov/fhir/ValueSet/2.16.840.1.113883.3.464.1003.104.12.1011</span>\n                      </span>\n                      \n                      \n                    \n                  </th>\n                </tr>\n              \n                <tr>\n                  <th>Condition</th>\n                  <th>http://hl7.org/fhir/us/qicore/StructureDefinition/qicore-condition-encounter-diagnosis</th>\n                  <th>;</th>\n                  <th>\n                    \n                      <b>code filter: </b>\n                      \n                      <br/>\n                      \n                      \n                      <span style=\"padding-left: 4px;\">\n                          <b>path: </b><span>code</span>\n                      </span>\n                      \n                      <br/>\n                      \n                      \n                      \n                      <span style=\"padding-left: 4px;\">\n                          <b>value set: </b><span>http://cts.nlm.nih.gov/fhir/ValueSet/2.16.840.1.113883.3.464.1003.1165</span>\n                      </span>\n                      \n                      \n                    \n                  </th>\n                </tr>\n              \n                <tr>\n                  <th>Condition</th>\n                  <th>http://hl7.org/fhir/us/qicore/StructureDefinition/qicore-condition-encounter-diagnosis</th>\n                  <th>;</th>\n                  <th>\n                    \n                      <b>code filter: </b>\n                      \n                      <br/>\n                      \n                      \n                      <span style=\"padding-left: 4px;\">\n                          <b>path: </b><span>code</span>\n                      </span>\n                      \n                      <br/>\n                      \n                      \n                      \n                      <span style=\"padding-left: 4px;\">\n                          <b>value set: </b><span>http://cts.nlm.nih.gov/fhir/ValueSet/2.16.840.1.113883.3.526.3.378</span>\n                      </span>\n                      \n                      \n                    \n                  </th>\n                </tr>\n              \n                <tr>\n                  <th>Condition</th>\n                  <th>http://hl7.org/fhir/us/qicore/StructureDefinition/qicore-condition-encounter-diagnosis</th>\n                  <th>;</th>\n                  <th>\n                    \n                      <b>code filter: </b>\n                      \n                      <br/>\n                      \n                      \n                      <span style=\"padding-left: 4px;\">\n                          <b>path: </b><span>code</span>\n                      </span>\n                      \n                      <br/>\n                      \n                      \n                      \n                      <span style=\"padding-left: 4px;\">\n                          <b>value set: </b><span>http://cts.nlm.nih.gov/fhir/ValueSet/2.16.840.1.113883.3.526.3.353</span>\n                      </span>\n                      \n                      \n                    \n                  </th>\n                </tr>\n              \n                <tr>\n                  <th>Condition</th>\n                  <th>http://hl7.org/fhir/us/qicore/StructureDefinition/qicore-condition-encounter-diagnosis</th>\n                  <th>;</th>\n                  <th>\n                    \n                      <b>code filter: </b>\n                      \n                      <br/>\n                      \n                      \n                      <span style=\"padding-left: 4px;\">\n                          <b>path: </b><span>code</span>\n                      </span>\n                      \n                      <br/>\n                      \n                      \n                      \n                      <span style=\"padding-left: 4px;\">\n                          <b>value set: </b><span>http://cts.nlm.nih.gov/fhir/ValueSet/2.16.840.1.113883.3.464.1003.109.12.1029</span>\n                      </span>\n                      \n                      \n                    \n                  </th>\n                </tr>\n              \n                <tr>\n                  <th>Condition</th>\n                  <th>http://hl7.org/fhir/us/qicore/StructureDefinition/qicore-condition-encounter-diagnosis</th>\n                  <th>;</th>\n                  <th>\n                    \n                      <b>code filter: </b>\n                      \n                      <br/>\n                      \n                      \n                      <span style=\"padding-left: 4px;\">\n                          <b>path: </b><span>code</span>\n                      </span>\n                      \n                      <br/>\n                      \n                      \n                      \n                      <span style=\"padding-left: 4px;\">\n                          <b>value set: </b><span>http://cts.nlm.nih.gov/fhir/ValueSet/2.16.840.1.113883.3.526.3.1002</span>\n                      </span>\n                      \n                      \n                    \n                  </th>\n                </tr>\n              \n                <tr>\n                  <th>Condition</th>\n                  <th>http://hl7.org/fhir/us/qicore/StructureDefinition/qicore-condition-encounter-diagnosis</th>\n                  <th>;</th>\n                  <th>\n                    \n                      <b>code filter: </b>\n                      \n                      <br/>\n                      \n                      \n                      <span style=\"padding-left: 4px;\">\n                          <b>path: </b><span>code</span>\n                      </span>\n                      \n                      <br/>\n                      \n                      \n                      \n                      <span style=\"padding-left: 4px;\">\n                          <b>value set: </b><span>http://cts.nlm.nih.gov/fhir/ValueSet/2.16.840.1.113883.3.464.1003.113.12.1074</span>\n                      </span>\n                      \n                      \n                    \n                  </th>\n                </tr>\n              \n                <tr>\n                  <th>Condition</th>\n                  <th>http://hl7.org/fhir/us/qicore/StructureDefinition/qicore-condition-encounter-diagnosis</th>\n                  <th>;</th>\n                  <th>\n                    \n                      <b>code filter: </b>\n                      \n                      <br/>\n                      \n                      \n                      <span style=\"padding-left: 4px;\">\n                          <b>path: </b><span>code</span>\n                      </span>\n                      \n                      <br/>\n                      \n                      \n                      \n                      <span style=\"padding-left: 4px;\">\n                          <b>value set: </b><span>http://cts.nlm.nih.gov/fhir/ValueSet/2.16.840.1.113883.3.464.1003.110.12.1082</span>\n                      </span>\n                      \n                      \n                    \n                  </th>\n                </tr>\n              \n                <tr>\n                  <th>Condition</th>\n                  <th>http://hl7.org/fhir/us/qicore/StructureDefinition/qicore-condition-encounter-diagnosis</th>\n                  <th>;</th>\n                  <th>\n                    \n                      <b>code filter: </b>\n                      \n                      <br/>\n                      \n                      \n                      <span style=\"padding-left: 4px;\">\n                          <b>path: </b><span>code</span>\n                      </span>\n                      \n                      <br/>\n                      \n                      \n                      \n                      <span style=\"padding-left: 4px;\">\n                          <b>value set: </b><span>http://cts.nlm.nih.gov/fhir/ValueSet/2.16.840.1.113883.3.464.1003.1167</span>\n                      </span>\n                      \n                      \n                    \n                  </th>\n                </tr>\n              \n                <tr>\n                  <th>Encounter</th>\n                  <th>http://hl7.org/fhir/us/qicore/StructureDefinition/qicore-encounter</th>\n                  <th>;</th>\n                  <th>\n                    \n                      <b>code filter: </b>\n                      \n                      <br/>\n                      \n                      \n                      <span style=\"padding-left: 4px;\">\n                          <b>path: </b><span>type</span>\n                      </span>\n                      \n                      <br/>\n                      \n                      \n                      \n                      <span style=\"padding-left: 4px;\">\n                          <b>value set: </b><span>http://cts.nlm.nih.gov/fhir/ValueSet/2.16.840.1.113883.3.464.1003.101.12.1001</span>\n                      </span>\n                      \n                      \n                    \n                  </th>\n                </tr>\n              \n                <tr>\n                  <th>Encounter</th>\n                  <th>http://hl7.org/fhir/us/qicore/StructureDefinition/qicore-encounter</th>\n                  <th>;</th>\n                  <th>\n                    \n                      <b>code filter: </b>\n                      \n                      <br/>\n                      \n                      \n                      <span style=\"padding-left: 4px;\">\n                          <b>path: </b><span>type</span>\n                      </span>\n                      \n                      <br/>\n                      \n                      \n                      \n                      <span style=\"padding-left: 4px;\">\n                          <b>value set: </b><span>http://cts.nlm.nih.gov/fhir/ValueSet/2.16.840.1.113883.3.526.3.1240</span>\n                      </span>\n                      \n                      \n                    \n                  </th>\n                </tr>\n              \n                <tr>\n                  <th>Encounter</th>\n                  <th>http://hl7.org/fhir/us/qicore/StructureDefinition/qicore-encounter</th>\n                  <th>;</th>\n                  <th>\n                    \n                      <b>code filter: </b>\n                      \n                      <br/>\n                      \n                      \n                      <span style=\"padding-left: 4px;\">\n                          <b>path: </b><span>type</span>\n                      </span>\n                      \n                      <br/>\n                      \n                      \n                      \n                      <span style=\"padding-left: 4px;\">\n                          <b>value set: </b><span>http://cts.nlm.nih.gov/fhir/ValueSet/2.16.840.1.113883.3.464.1003.101.12.1025</span>\n                      </span>\n                      \n                      \n                    \n                  </th>\n                </tr>\n              \n                <tr>\n                  <th>Encounter</th>\n                  <th>http://hl7.org/fhir/us/qicore/StructureDefinition/qicore-encounter</th>\n                  <th>;</th>\n                  <th>\n                    \n                      <b>code filter: </b>\n                      \n                      <br/>\n                      \n                      \n                      <span style=\"padding-left: 4px;\">\n                          <b>path: </b><span>type</span>\n                      </span>\n                      \n                      <br/>\n                      \n                      \n                      \n                      <span style=\"padding-left: 4px;\">\n                          <b>value set: </b><span>http://cts.nlm.nih.gov/fhir/ValueSet/2.16.840.1.113883.3.464.1003.101.12.1023</span>\n                      </span>\n                      \n                      \n                    \n                  </th>\n                </tr>\n              \n                <tr>\n                  <th>Encounter</th>\n                  <th>http://hl7.org/fhir/us/qicore/StructureDefinition/qicore-encounter</th>\n                  <th>;</th>\n                  <th>\n                    \n                      <b>code filter: </b>\n                      \n                      <br/>\n                      \n                      \n                      <span style=\"padding-left: 4px;\">\n                          <b>path: </b><span>type</span>\n                      </span>\n                      \n                      <br/>\n                      \n                      \n                      \n                      <span style=\"padding-left: 4px;\">\n                          <b>value set: </b><span>http://cts.nlm.nih.gov/fhir/ValueSet/2.16.840.1.113883.3.464.1003.101.12.1016</span>\n                      </span>\n                      \n                      \n                    \n                  </th>\n                </tr>\n              \n                <tr>\n                  <th>Encounter</th>\n                  <th>http://hl7.org/fhir/us/qicore/StructureDefinition/qicore-encounter</th>\n                  <th>;</th>\n                  <th>\n                    \n                      <b>code filter: </b>\n                      \n                      <br/>\n                      \n                      \n                      <span style=\"padding-left: 4px;\">\n                          <b>path: </b><span>type</span>\n                      </span>\n                      \n                      <br/>\n                      \n                      \n                      \n                      <span style=\"padding-left: 4px;\">\n                          <b>value set: </b><span>http://cts.nlm.nih.gov/fhir/ValueSet/2.16.840.1.113883.3.464.1003.101.12.1089</span>\n                      </span>\n                      \n                      \n                    \n                  </th>\n                </tr>\n              \n                <tr>\n                  <th>Encounter</th>\n                  <th>http://hl7.org/fhir/us/qicore/StructureDefinition/qicore-encounter</th>\n                  <th>;</th>\n                  <th>\n                    \n                      <b>code filter: </b>\n                      \n                      <br/>\n                      \n                      \n                      <span style=\"padding-left: 4px;\">\n                          <b>path: </b><span>type</span>\n                      </span>\n                      \n                      <br/>\n                      \n                      \n                      \n                      <span style=\"padding-left: 4px;\">\n                          <b>value set: </b><span>http://cts.nlm.nih.gov/fhir/ValueSet/2.16.840.1.113883.3.464.1003.101.12.1080</span>\n                      </span>\n                      \n                      \n                    \n                  </th>\n                </tr>\n              \n                <tr>\n                  <th>Encounter</th>\n                  <th>http://hl7.org/fhir/us/qicore/StructureDefinition/qicore-encounter</th>\n                  <th>;;;;</th>\n                  <th>\n                    \n                      <b>code filter: </b>\n                      \n                      <br/>\n                      \n                      \n                      <span style=\"padding-left: 4px;\">\n                          <b>path: </b><span>type</span>\n                      </span>\n                      \n                      <br/>\n                      \n                      \n                      \n                      <span style=\"padding-left: 4px;\">\n                          <b>value set: </b><span>http://cts.nlm.nih.gov/fhir/ValueSet/2.16.840.1.113883.3.666.5.307</span>\n                      </span>\n                      \n                      \n                    \n                  </th>\n                </tr>\n              \n                <tr>\n                  <th>Encounter</th>\n                  <th>http://hl7.org/fhir/us/qicore/StructureDefinition/qicore-encounter</th>\n                  <th>;;</th>\n                  <th>\n                    \n                      <b>code filter: </b>\n                      \n                      <br/>\n                      \n                      \n                      <span style=\"padding-left: 4px;\">\n                          <b>path: </b><span>type</span>\n                      </span>\n                      \n                      <br/>\n                      \n                      \n                      \n                      <span style=\"padding-left: 4px;\">\n                          <b>value set: </b><span>http://cts.nlm.nih.gov/fhir/ValueSet/2.16.840.1.113883.3.464.1003.1003</span>\n                      </span>\n                      \n                      \n                    \n                  </th>\n                </tr>\n              \n                <tr>\n                  <th>Encounter</th>\n                  <th>http://hl7.org/fhir/us/qicore/StructureDefinition/qicore-encounter</th>\n                  <th>;;</th>\n                  <th>\n                    \n                      <b>code filter: </b>\n                      \n                      <br/>\n                      \n                      \n                      <span style=\"padding-left: 4px;\">\n                          <b>path: </b><span>type</span>\n                      </span>\n                      \n                      <br/>\n                      \n                      \n                      \n                      <span style=\"padding-left: 4px;\">\n                          <b>value set: </b><span>http://cts.nlm.nih.gov/fhir/ValueSet/2.16.840.1.113883.3.464.1003.101.12.1088</span>\n                      </span>\n                      \n                      \n                    \n                  </th>\n                </tr>\n              \n                <tr>\n                  <th>Encounter</th>\n                  <th>http://hl7.org/fhir/us/qicore/StructureDefinition/qicore-encounter</th>\n                  <th>;;</th>\n                  <th>\n                    \n                      <b>code filter: </b>\n                      \n                      <br/>\n                      \n                      \n                      <span style=\"padding-left: 4px;\">\n                          <b>path: </b><span>type</span>\n                      </span>\n                      \n                      <br/>\n                      \n                      \n                      \n                      <span style=\"padding-left: 4px;\">\n                          <b>value set: </b><span>http://cts.nlm.nih.gov/fhir/ValueSet/2.16.840.1.113883.3.464.1003.101.12.1090</span>\n                      </span>\n                      \n                      \n                    \n                  </th>\n                </tr>\n              \n                <tr>\n                  <th>Coverage</th>\n                  <th>http://hl7.org/fhir/us/qicore/StructureDefinition/qicore-coverage</th>\n                  <th>;;</th>\n                  <th>\n                    \n                      <b>code filter: </b>\n                      \n                      <br/>\n                      \n                      \n                      <span style=\"padding-left: 4px;\">\n                          <b>path: </b><span>type</span>\n                      </span>\n                      \n                      <br/>\n                      \n                      \n                      \n                      <span style=\"padding-left: 4px;\">\n                          <b>value set: </b><span>http://cts.nlm.nih.gov/fhir/ValueSet/2.16.840.1.114222.4.11.3591</span>\n                      </span>\n                      \n                      \n                    \n                  </th>\n                </tr>\n              \n                <tr>\n                  <th>Observation</th>\n                  <th>http://hl7.org/fhir/us/qicore/StructureDefinition/qicore-observation-screening-assessment</th>\n                  <th>;;;</th>\n                  <th>\n                    \n                      <b>code filter: </b>\n                      \n                      <br/>\n                      \n                      \n                      <span style=\"padding-left: 4px;\">\n                          <b>path: </b><span>code</span>\n                      </span>\n                      \n                      <br/>\n                      \n                      \n                      \n                      \n                          \n                          <p style=\"margin-bottom: 5px;\">\n                              <b>system: </b> <span>http://loinc.org</span>\n                          </p>\n                          \n                          \n                          <p style=\"margin-bottom: 5px;\">\n                              <b>code: </b> <span>45755-6</span>\n                          </p>\n                          \n                          \n                          <p style=\"margin-bottom: 5px;\">\n                              <b>display: </b> <span>Hospice care [Minimum Data Set]</span>\n                          </p>\n                          \n                      \n                    \n                  </th>\n                </tr>\n              \n                <tr>\n                  <th>Observation</th>\n                  <th>http://hl7.org/fhir/us/qicore/StructureDefinition/qicore-observation-screening-assessment</th>\n                  <th>;;;</th>\n                  <th>\n                    \n                      <b>code filter: </b>\n                      \n                      <br/>\n                      \n                      \n                      <span style=\"padding-left: 4px;\">\n                          <b>path: </b><span>code</span>\n                      </span>\n                      \n                      <br/>\n                      \n                      \n                      \n                      \n                          \n                          <p style=\"margin-bottom: 5px;\">\n                              <b>system: </b> <span>http://loinc.org</span>\n                          </p>\n                          \n                          \n                          <p style=\"margin-bottom: 5px;\">\n                              <b>code: </b> <span>98181-1</span>\n                          </p>\n                          \n                          \n                          <p style=\"margin-bottom: 5px;\">\n                              <b>display: </b> <span>Medical equipment used</span>\n                          </p>\n                          \n                      \n                    \n                  </th>\n                </tr>\n              \n                <tr>\n                  <th>Observation</th>\n                  <th>http://hl7.org/fhir/us/qicore/StructureDefinition/qicore-observation-screening-assessment</th>\n                  <th>;;;</th>\n                  <th>\n                    \n                      <b>code filter: </b>\n                      \n                      <br/>\n                      \n                      \n                      <span style=\"padding-left: 4px;\">\n                          <b>path: </b><span>code</span>\n                      </span>\n                      \n                      <br/>\n                      \n                      \n                      \n                      \n                          \n                          <p style=\"margin-bottom: 5px;\">\n                              <b>system: </b> <span>http://loinc.org</span>\n                          </p>\n                          \n                          \n                          <p style=\"margin-bottom: 5px;\">\n                              <b>code: </b> <span>71802-3</span>\n                          </p>\n                          \n                          \n                          <p style=\"margin-bottom: 5px;\">\n                              <b>display: </b> <span>Housing status</span>\n                          </p>\n                          \n                      \n                    \n                  </th>\n                </tr>\n              \n                <tr>\n                  <th>Observation</th>\n                  <th>http://hl7.org/fhir/us/qicore/StructureDefinition/qicore-observation-screening-assessment</th>\n                  <th>;;</th>\n                  <th>\n                    \n                      <b>code filter: </b>\n                      \n                      <br/>\n                      \n                      \n                      <span style=\"padding-left: 4px;\">\n                          <b>path: </b><span>code</span>\n                      </span>\n                      \n                      <br/>\n                      \n                      \n                      \n                      \n                          \n                          <p style=\"margin-bottom: 5px;\">\n                              <b>system: </b> <span>http://loinc.org</span>\n                          </p>\n                          \n                          \n                          <p style=\"margin-bottom: 5px;\">\n                              <b>code: </b> <span>71007-9</span>\n                          </p>\n                          \n                          \n                          <p style=\"margin-bottom: 5px;\">\n                              <b>display: </b> <span>Functional Assessment of Chronic Illness Therapy - Palliative Care Questionnaire (FACIT-Pal)</span>\n                          </p>\n                          \n                      \n                    \n                  </th>\n                </tr>\n              \n                <tr>\n                  <th>ServiceRequest</th>\n                  <th>http://hl7.org/fhir/us/qicore/StructureDefinition/qicore-servicerequest</th>\n                  <th>;;;</th>\n                  <th>\n                    \n                      <b>code filter: </b>\n                      \n                      <br/>\n                      \n                      \n                      <span style=\"padding-left: 4px;\">\n                          <b>path: </b><span>code</span>\n                      </span>\n                      \n                      <br/>\n                      \n                      \n                      \n                      <span style=\"padding-left: 4px;\">\n                          <b>value set: </b><span>http://cts.nlm.nih.gov/fhir/ValueSet/2.16.840.1.113883.3.526.3.1584</span>\n                      </span>\n                      \n                      \n                    \n                  </th>\n                </tr>\n              \n                <tr>\n                  <th>Procedure</th>\n                  <th>http://hl7.org/fhir/us/qicore/StructureDefinition/qicore-procedure</th>\n                  <th>;;</th>\n                  <th>\n                    \n                      <b>code filter: </b>\n                      \n                      <br/>\n                      \n                      \n                      <span style=\"padding-left: 4px;\">\n                          <b>path: </b><span>code</span>\n                      </span>\n                      \n                      <br/>\n                      \n                      \n                      \n                      <span style=\"padding-left: 4px;\">\n                          <b>value set: </b><span>http://cts.nlm.nih.gov/fhir/ValueSet/2.16.840.1.113883.3.526.3.1584</span>\n                      </span>\n                      \n                      \n                    \n                  </th>\n                </tr>\n              \n                <tr>\n                  <th>Procedure</th>\n                  <th>http://hl7.org/fhir/us/qicore/StructureDefinition/qicore-procedure</th>\n                  <th>;</th>\n                  <th>\n                    \n                      <b>code filter: </b>\n                      \n                      <br/>\n                      \n                      \n                      <span style=\"padding-left: 4px;\">\n                          <b>path: </b><span>code</span>\n                      </span>\n                      \n                      <br/>\n                      \n                      \n                      \n                      <span style=\"padding-left: 4px;\">\n                          <b>value set: </b><span>http://cts.nlm.nih.gov/fhir/ValueSet/2.16.840.1.113883.3.464.1003.109.12.1012</span>\n                      </span>\n                      \n                      \n                    \n                  </th>\n                </tr>\n              \n                <tr>\n                  <th>Procedure</th>\n                  <th>http://hl7.org/fhir/us/qicore/StructureDefinition/qicore-procedure</th>\n                  <th>;</th>\n                  <th>\n                    \n                      <b>code filter: </b>\n                      \n                      <br/>\n                      \n                      \n                      <span style=\"padding-left: 4px;\">\n                          <b>path: </b><span>code</span>\n                      </span>\n                      \n                      <br/>\n                      \n                      \n                      \n                      <span style=\"padding-left: 4px;\">\n                          <b>value set: </b><span>http://cts.nlm.nih.gov/fhir/ValueSet/2.16.840.1.113883.3.464.1003.109.12.1013</span>\n                      </span>\n                      \n                      \n                    \n                  </th>\n                </tr>\n              \n                <tr>\n                  <th>Procedure</th>\n                  <th>http://hl7.org/fhir/us/qicore/StructureDefinition/qicore-procedure</th>\n                  <th>;;</th>\n                  <th>\n                    \n                      <b>code filter: </b>\n                      \n                      <br/>\n                      \n                      \n                      <span style=\"padding-left: 4px;\">\n                          <b>path: </b><span>code</span>\n                      </span>\n                      \n                      <br/>\n                      \n                      \n                      \n                      <span style=\"padding-left: 4px;\">\n                          <b>value set: </b><span>http://cts.nlm.nih.gov/fhir/ValueSet/2.16.840.1.113883.3.464.1003.198.12.1135</span>\n                      </span>\n                      \n                      \n                    \n                  </th>\n                </tr>\n              \n                <tr>\n                  <th>DeviceRequest</th>\n                  <th>http://hl7.org/fhir/us/qicore/StructureDefinition/qicore-devicerequest</th>\n                  <th>;;;</th>\n                  <th>\n                    \n                      <b>code filter: </b>\n                      \n                      <br/>\n                      \n                      \n                      <span style=\"padding-left: 4px;\">\n                          <b>path: </b><span>code</span>\n                      </span>\n                      \n                      <br/>\n                      \n                      \n                      \n                      <span style=\"padding-left: 4px;\">\n                          <b>value set: </b><span>http://cts.nlm.nih.gov/fhir/ValueSet/2.16.840.1.113883.3.464.1003.118.12.1300</span>\n                      </span>\n                      \n                      \n                    \n                  </th>\n                </tr>\n              \n                <tr>\n                  <th>Observation</th>\n                  <th>http://hl7.org/fhir/us/qicore/StructureDefinition/qicore-simple-observation</th>\n                  <th>;;</th>\n                  <th>\n                    \n                      <b>code filter: </b>\n                      \n                      <br/>\n                      \n                      \n                      <span style=\"padding-left: 4px;\">\n                          <b>path: </b><span>code</span>\n                      </span>\n                      \n                      <br/>\n                      \n                      \n                      \n                      <span style=\"padding-left: 4px;\">\n                          <b>value set: </b><span>http://cts.nlm.nih.gov/fhir/ValueSet/2.16.840.1.113883.3.464.1003.113.12.1075</span>\n                      </span>\n                      \n                      \n                    \n                  </th>\n                </tr>\n              \n            </table>\n          </td>\n        </tr>\n        \n\n        \n        \n        <tr>\n          <td colspan=\"2\">\n            <table>\n              <tr><th><a id=\"cql-content\"><b>Content: </b></a> text/cql</th></tr>\n              <tr><td><pre><code class=\"language-cql\">library CMS165FHIRControllingHighBloodPressure version '0.3.000'\r\n\r\nusing QICore version '6.0.0'\r\n\r\ninclude FHIRHelpers version '4.4.000' called FHIRHelpers\r\ninclude QICoreCommon version '4.0.000' called QICoreCommon\r\ninclude SupplementalDataElements version '5.1.000' called SDE\r\ninclude Status version '1.13.000' called Status\r\ninclude AdvancedIllnessandFrailty version '1.23.000' called AIFrailLTCF\r\ninclude AdultOutpatientEncounters version '4.16.000' called AdultOutpatientEncounters\r\ninclude Hospice version '6.15.000' called Hospice\r\ninclude PalliativeCare version '1.15.000' called PalliativeCare\r\n\r\ncodesystem &quot;LOINC&quot;: 'http://loinc.org'\r\n\r\nvalueset &quot;Chronic Kidney Disease, Stage 5&quot;: 'http://cts.nlm.nih.gov/fhir/ValueSet/2.16.840.1.113883.3.526.3.1002'\r\nvalueset &quot;Dialysis Services&quot;: 'http://cts.nlm.nih.gov/fhir/ValueSet/2.16.840.1.113883.3.464.1003.109.12.1013'\r\nvalueset &quot;Emergency Department Evaluation and Management Visit&quot;: 'http://cts.nlm.nih.gov/fhir/ValueSet/2.16.840.1.113883.3.464.1003.101.12.1010'\r\nvalueset &quot;Encounter Inpatient&quot;: 'http://cts.nlm.nih.gov/fhir/ValueSet/2.16.840.1.113883.3.666.5.307'\r\nvalueset &quot;End Stage Renal Disease&quot;: 'http://cts.nlm.nih.gov/fhir/ValueSet/2.16.840.1.113883.3.526.3.353'\r\nvalueset &quot;ESRD Monthly Outpatient Services&quot;: 'http://cts.nlm.nih.gov/fhir/ValueSet/2.16.840.1.113883.3.464.1003.109.12.1014'\r\nvalueset &quot;Essential Hypertension&quot;: 'http://cts.nlm.nih.gov/fhir/ValueSet/2.16.840.1.113883.3.464.1003.104.12.1011'\r\nvalueset &quot;Kidney Transplant&quot;: 'http://cts.nlm.nih.gov/fhir/ValueSet/2.16.840.1.113883.3.464.1003.109.12.1012'\r\nvalueset &quot;Kidney Transplant Recipient&quot;: 'http://cts.nlm.nih.gov/fhir/ValueSet/2.16.840.1.113883.3.464.1003.109.12.1029'\r\nvalueset &quot;Pregnancy&quot;: 'http://cts.nlm.nih.gov/fhir/ValueSet/2.16.840.1.113883.3.526.3.378'\r\n\r\ncode &quot;Diastolic blood pressure&quot;: '8462-4' from &quot;LOINC&quot; display 'Diastolic blood pressure'\r\ncode &quot;Systolic blood pressure&quot;: '8480-6' from &quot;LOINC&quot; display 'Systolic blood pressure'\r\n\r\nparameter &quot;Measurement Period&quot; Interval&lt;DateTime&gt;\r\n\r\ncontext Patient\r\n\r\ndefine &quot;Initial Population&quot;:\r\n  AgeInYearsAt(date from \r\n    end of &quot;Measurement Period&quot;\r\n  ) in Interval[18, 85]\r\n    and exists &quot;Essential Hypertension Diagnosis&quot;\r\n    and exists AdultOutpatientEncounters.&quot;Qualifying Encounters&quot;\r\n\r\ndefine &quot;Essential Hypertension Diagnosis&quot;:\r\n  ( [ConditionProblemsHealthConcerns: &quot;Essential Hypertension&quot;]\r\n    union [ConditionEncounterDiagnosis: &quot;Essential Hypertension&quot;] ) Hypertension\r\n    where Hypertension.prevalenceInterval ( ) overlaps Interval[start of &quot;Measurement Period&quot;, start of &quot;Measurement Period&quot; + 6 months )\r\n\r\ndefine &quot;Denominator&quot;:\r\n  &quot;Initial Population&quot;\r\n\r\ndefine &quot;Denominator Exclusions&quot;:\r\n  Hospice.&quot;Has Hospice Services&quot;\r\n    or exists ( &quot;Pregnancy or Renal Diagnosis&quot; )\r\n    or exists ( &quot;End Stage Renal Disease Procedures&quot; )\r\n    or exists ( &quot;End Stage Renal Disease Encounter&quot; )\r\n    or AIFrailLTCF.&quot;Is Age 66 to 80 with Advanced Illness and Frailty or Is Age 81 or Older with Frailty&quot;\r\n    or AIFrailLTCF.&quot;Is Age 66 or Older Living Long Term in a Nursing Home&quot;\r\n    or PalliativeCare.&quot;Has Palliative Care in the Measurement Period&quot;\r\n\r\ndefine &quot;Pregnancy or Renal Diagnosis&quot;:\r\n  ( [ConditionProblemsHealthConcerns: &quot;Pregnancy&quot;]\r\n    union [ConditionEncounterDiagnosis: &quot;Pregnancy&quot;]\r\n    union [ConditionProblemsHealthConcerns: &quot;End Stage Renal Disease&quot;]\r\n    union [ConditionEncounterDiagnosis: &quot;End Stage Renal Disease&quot;]\r\n    union [ConditionProblemsHealthConcerns: &quot;Kidney Transplant Recipient&quot;]\r\n    union [ConditionEncounterDiagnosis: &quot;Kidney Transplant Recipient&quot;]\r\n    union [ConditionProblemsHealthConcerns: &quot;Chronic Kidney Disease, Stage 5&quot;]\r\n    union [ConditionEncounterDiagnosis: &quot;Chronic Kidney Disease, Stage 5&quot;] ) PregnancyESRDDiagnosis\r\n    where PregnancyESRDDiagnosis.prevalenceInterval ( ) overlaps &quot;Measurement Period&quot;\r\n\r\ndefine &quot;End Stage Renal Disease Procedures&quot;:\r\n  ( ( [Procedure: &quot;Kidney Transplant&quot;]\r\n      union [Procedure: &quot;Dialysis Services&quot;]\r\n  ).isProcedurePerformed ( ) ) ESRDProcedure\r\n    where ESRDProcedure.performed.toInterval ( ) ends on or before end of &quot;Measurement Period&quot;\r\n\r\ndefine &quot;End Stage Renal Disease Encounter&quot;:\r\n  ( ( [Encounter: &quot;ESRD Monthly Outpatient Services&quot;] ).isEncounterPerformed ( ) ) ESRDEncounter\r\n    where ESRDEncounter.period.toInterval ( ) starts on or before end of &quot;Measurement Period&quot;\r\n\r\ndefine &quot;Numerator&quot;:\r\n  &quot;Has Systolic Blood Pressure Less Than 140&quot;\r\n    and &quot;Has Diastolic Blood Pressure Less Than 90&quot;\r\n\r\ndefine &quot;Has Systolic Blood Pressure Less Than 140&quot;:\r\n  &quot;Lowest Systolic Reading on Most Recent Blood Pressure Day&quot; &lt; 140 'mm[Hg]'\r\n\r\ndefine &quot;Has Diastolic Blood Pressure Less Than 90&quot;:\r\n  &quot;Lowest Diastolic Reading on Most Recent Blood Pressure Day&quot; &lt; 90 'mm[Hg]'\r\n\r\ndefine &quot;Lowest Systolic Reading on Most Recent Blood Pressure Day&quot;:\r\n  First(&quot;Qualifying Systolic Blood Pressure Reading&quot; SBPReading\r\n      where SBPReading.effective.latest() same day as &quot;Most Recent Blood Pressure Day&quot;\r\n      return singleton from(SBPReading.component SBPComponent\r\n          where SBPComponent.code ~ &quot;Systolic blood pressure&quot;\r\n          return SBPComponent.value as Quantity\r\n      )\r\n      sort asc\r\n  )\r\n\r\ndefine &quot;Lowest Diastolic Reading on Most Recent Blood Pressure Day&quot;:\r\n  First(&quot;Qualifying Diastolic Blood Pressure Reading&quot; DBPReading\r\n      where DBPReading.effective.latest() same day as &quot;Most Recent Blood Pressure Day&quot;\r\n      return singleton from(DBPReading.component DBPComponent\r\n          where DBPComponent.code ~ &quot;Diastolic blood pressure&quot;\r\n          return DBPComponent.value as Quantity\r\n      )\r\n      sort asc\r\n  )\r\n\r\ndefine &quot;Qualifying Systolic Blood Pressure Reading&quot;:\r\n  ( ( [USCoreBloodPressureProfile] ).isObservationBP ( ) ) BloodPressure\r\n    where ( not ( ( BloodPressure.encounter.getEncounter ( ) ).class.code in { 'EMER', 'IMP', 'ACUTE', 'NONAC', 'PRENC', 'SS' } ) )\r\n      and BloodPressure.effective.latest ( ) during day of &quot;Measurement Period&quot;\r\n\r\ndefine &quot;Qualifying Diastolic Blood Pressure Reading&quot;:\r\n  ( ( [USCoreBloodPressureProfile] ).isObservationBP ( ) ) BloodPressure\r\n    where ( not ( ( BloodPressure.encounter.getEncounter ( ) ).class.code in { 'EMER', 'IMP', 'ACUTE', 'NONAC', 'PRENC', 'SS' } ) )\r\n      and BloodPressure.effective.latest ( ) during day of &quot;Measurement Period&quot;\r\n\r\ndefine fluent function getEncounter(reference Reference):\r\n  singleton from ( [Encounter] E\r\n      where E.id = reference.reference.getId ( )\r\n  )\r\n\r\ndefine &quot;Most Recent Blood Pressure Day&quot;:\r\n  Last(&quot;Blood Pressure Days&quot; BPDays\r\n      sort asc\r\n  )\r\n\r\ndefine &quot;Blood Pressure Days&quot;:\r\n  ( &quot;Qualifying Diastolic Blood Pressure Reading&quot; DBPExam\r\n      return date from DBPExam.effective.latest ( )\r\n  )\r\n    intersect ( &quot;Qualifying Systolic Blood Pressure Reading&quot; SBPExam\r\n        return date from SBPExam.effective.latest ( )\r\n    )\r\n\r\ndefine &quot;SDE Ethnicity&quot;:\r\n  SDE.&quot;SDE Ethnicity&quot;\r\n\r\ndefine &quot;SDE Payer&quot;:\r\n  SDE.&quot;SDE Payer&quot;\r\n\r\ndefine &quot;SDE Race&quot;:\r\n  SDE.&quot;SDE Race&quot;\r\n\r\ndefine &quot;SDE Sex&quot;:\r\n  SDE.&quot;SDE Sex&quot;</code></pre></td></tr>\n            </table>\n          </td>\n        </tr>\n        \n        \n        \n    </table>\n</div>"},"contained":[{"resourceType":"Parameters","id":"options","parameter":[{"name":"translatorVersion","valueString":"3.25.0"},{"name":"option","valueString":"EnableAnnotations"},{"name":"option","valueString":"EnableLocators"},{"name":"option","valueString":"DisableListDemotion"},{"name":"option","valueString":"DisableListPromotion"},{"name":"format","valueString":"JSON"},{"name":"format","valueString":"XML"},{"name":"analyzeDataRequirements","valueBoolean":false},{"name":"collapseDataRequirements","valueBoolean":false},{"name":"compatibilityLevel","valueString":"1.5"},{"name":"enableCqlOnly","valueBoolean":false},{"name":"errorLevel","valueString":"Info"},{"name":"signatureLevel","valueString":"Overloads"},{"name":"validateUnits","valueBoolean":true},{"name":"verifyOnly","valueBoolean":false}]}],"extension":[{"url":"http://hl7.org/fhir/StructureDefinition/cqf-directReferenceCode","valueCoding":{"system":"http://loinc.org","code":"8462-4","display":"Diastolic blood pressure"}},{"url":"http://hl7.org/fhir/StructureDefinition/cqf-directReferenceCode","valueCoding":{"system":"http://loinc.org","code":"8480-6","display":"Systolic blood pressure"}},{"url":"http://hl7.org/fhir/StructureDefinition/cqf-cqlOptions","valueReference":{"reference":"#options"}}],"url":"https://madie.cms.gov/Library/CMS165FHIRControllingHighBloodPressure","identifier":[{"use":"official","system":"https://madie.cms.gov/login","value":"CMS165FHIRControllingHighBloodPressure"}],"version":"0.3.000","name":"CMS165FHIRControllingHighBloodPressure","title":"CMS165FHIRControllingHighBloodPressure","status":"active","experimental":false,"type":{"coding":[{"system":"http://terminology.hl7.org/CodeSystem/library-type","code":"logic-library"}]},"date":"2025-04-15T22:24:12+00:00","publisher":"National Committee for Quality Assurance","description":"CMS165FHIRControllingHighBloodPressure","content":[{"contentType":"text/cql","data":""}]},"request":{"method":"PUT","url":"Library/CMS165FHIRControllingHighBloodPressure"}},{"resource":{"resourceType":"Patient","id":"b378c30b-ebc2-4378-9a75-8a97711cac81","meta":{"profile":["http://hl7.org/fhir/us/qicore/StructureDefinition/qicore-patient"]},"extension":[{"url":"http://hl7.org/fhir/us/core/StructureDefinition/us-core-race","extension":[{"url":"ombCategory","valueCoding":{"system":"urn:oid:2.16.840.1.113883.6.238","code":"2028-9","display":"Asian"}},{"url":"text","valueString":"Asian"}]},{"url":"http://hl7.org/fhir/us/core/StructureDefinition/us-core-ethnicity","extension":[{"url":"ombCategory","valueCoding":{"system":"urn:oid:2.16.840.1.113883.6.238","code":"2135-2","display":"Hispanic or Latino"}},{"url":"text","valueString":"Hispanic or Latino"}]}],"identifier":[{"system":"http://hospital.smarthealthit.org","value":"999999995"}],"name":[{"family":"DENEXFail","given":["LastHousingStatusNotNursingHome"]}],"gender":"female","birthDate":"1959-12-31"},"request":{"method":"PUT","url":"Patient/b378c30b-ebc2-4378-9a75-8a97711cac81"}},{"resource":{"resourceType":"Encounter","id":"152f90fb-6fb3-4669-a56a-18a013528ac5","meta":{"profile":["http://hl7.org/fhir/us/qicore/StructureDefinition/qicore-encounter"]},"status":"finished","class":{"system":"http://terminology.hl7.org/CodeSystem/v3-ActCode","code":"AMB","display":"ambulatory"},"type":[{"coding":[{"system":"http://snomed.info/sct","code":"3391000175108","display":"Office visit for pediatric care and assessment (procedure)"}]}],"subject":{"reference":"Patient/b378c30b-ebc2-4378-9a75-8a97711cac81"},"period":{"start":"2026-01-01T00:00:00.000Z","end":"2026-01-01T01:00:00.000Z"}},"request":{"method":"PUT","url":"Encounter/152f90fb-6fb3-4669-a56a-18a013528ac5"}},{"resource":{"resourceType":"Condition","id":"53c2832d-2802-47fd-966d-0296fcbbe5bb","meta":{"profile":["http://hl7.org/fhir/us/qicore/StructureDefinition/qicore-condition-encounter-diagnosis"]},"clinicalStatus":{"coding":[{"system":"http://terminology.hl7.org/CodeSystem/condition-clinical","code":"active"}]},"category":[{"coding":[{"system":"http://terminology.hl7.org/CodeSystem/condition-category","code":"problem-list-item","display":"Problem List Item"}]}],"code":{"coding":[{"system":"http://snomed.info/sct","code":"371125006","display":"Labile essential hypertension (disorder)"}]},"subject":{"reference":"Patient/b378c30b-ebc2-4378-9a75-8a97711cac81"},"onsetDateTime":"2026-06-30T23:59:59.000Z"},"request":{"method":"PUT","url":"Condition/53c2832d-2802-47fd-966d-0296fcbbe5bb"}},{"resource":{"resourceType":"Observation","id":"df264834-375c-4453-88cd-4a14b1b4ac0f","meta":{"profile":["http://hl7.org/fhir/us/qicore/StructureDefinition/qicore-observation-screening-assessment"]},"status":"final","category":[{"coding":[{"system":"http://terminology.hl7.org/CodeSystem/observation-category","code":"survey"}]}],"code":{"coding":[{"system":"http://loinc.org","code":"71802-3","display":"Housing status"}]},"subject":{"reference":"Patient/b378c30b-ebc2-4378-9a75-8a97711cac81"},"effectivePeriod":{"start":"2025-12-31T00:00:00.000Z","end":"2026-01-01T00:00:00.000Z"},"valueCodeableConcept":{"coding":[{"system":"http://snomed.info/sct","code":"160943002","display":"Lives in own home"}]}},"request":{"method":"PUT","url":"Observation/df264834-375c-4453-88cd-4a14b1b4ac0f"}},{"resource":{"resourceType":"MeasureReport","id":"8cbab208-6f33-41e5-bff8-e6e61776cea0","meta":{"profile":["http://hl7.org/fhir/us/cqfmeasures/StructureDefinition/test-case-cqfm"]},"contained":[{"resourceType":"Parameters","id":"5eef392c-985f-4625-9d27-9954f660a048-parameters","parameter":[{"name":"subject","valueString":"b378c30b-ebc2-4378-9a75-8a97711cac81"}]}],"extension":[{"url":"http://hl7.org/fhir/StructureDefinition/cqf-inputParameters","valueReference":{"reference":"#5eef392c-985f-4625-9d27-9954f660a048-parameters"}},{"url":"http://hl7.org/fhir/us/cqfmeasures/StructureDefinition/cqfm-testCaseDescription","valueMarkdown":"Last housing status not nursing home"}],"modifierExtension":[{"url":"http://hl7.org/fhir/us/cqfmeasures/StructureDefinition/cqfm-isTestCase","valueBoolean":true}],"status":"complete","type":"individual","measure":"https://madie.cms.gov/Measure/CMS165FHIRControllingHighBloodPressure","period":{"start":"2026-01-01","end":"2026-12-31"},"group":[{"id":"Group_1","population":[{"id":"InitialPopulation_1","code":{"coding":[{"system":"http://terminology.hl7.org/CodeSystem/measure-population","code":"initial-population","display":"Initial Population"}]},"count":1},{"id":"Denominator_1","code":{"coding":[{"system":"http://terminology.hl7.org/CodeSystem/measure-population","code":"denominator","display":"Denominator"}]},"count":1},{"id":"DenominatorExclusion_1","code":{"coding":[{"system":"http://terminology.hl7.org/CodeSystem/measure-population","code":"denominator-exclusion","display":"Denominator Exclusion"}]},"count":0},{"id":"Numerator_1","code":{"coding":[{"system":"http://terminology.hl7.org/CodeSystem/measure-population","code":"numerator","display":"Numerator"}]},"count":0}],"measureScore":{"value":1.0}}],"evaluatedResource":[{"reference":"Patient/b378c30b-ebc2-4378-9a75-8a97711cac81"},{"reference":"Encounter/152f90fb-6fb3-4669-a56a-18a013528ac5"},{"reference":"Condition/53c2832d-2802-47fd-966d-0296fcbbe5bb"},{"reference":"Observation/df264834-375c-4453-88cd-4a14b1b4ac0f"}]},"request":{"method":"PUT","url":"MeasureReport/8cbab208-6f33-41e5-bff8-e6e61776cea0"}},{"resource":{"resourceType":"Encounter","id":"6042d2a1-883a-4073-8389-379304dd783b","meta":{"profile":["http://hl7.org/fhir/us/qicore/StructureDefinition/qicore-encounter"]},"status":"finished","class":{"system":"http://terminology.hl7.org/CodeSystem/v3-ActCode","code":"AMB","display":"ambulatory"},"type":[{"coding":[{"system":"http://snomed.info/sct","code":"3391000175108","display":"Office visit for pediatric care and assessment (procedure)"}]}],"subject":{"reference":"Patient/1905549a-1783-4195-95b9-b0879cb81d96"},"period":{"start":"2026-01-01T00:00:00.000Z","end":"2026-01-01T01:00:00.000Z"}},"request":{"method":"PUT","url":"Encounter/6042d2a1-883a-4073-8389-379304dd783b"}},{"resource":{"resourceType":"MeasureReport","id":"de192271-9087-4e65-ad35-2768080be875","meta":{"profile":["http://hl7.org/fhir/us/cqfmeasures/StructureDefinition/test-case-cqfm"]},"contained":[{"resourceType":"Parameters","id":"fc6c0df5-4266-4b02-94cc-1a85a33d34e9-parameters","parameter":[{"name":"subject","valueString":"1905549a-1783-4195-95b9-b0879cb81d96"}]}],"extension":[{"url":"http://hl7.org/fhir/StructureDefinition/cqf-inputParameters","valueReference":{"reference":"#fc6c0df5-4266-4b02-94cc-1a85a33d34e9-parameters"}},{"url":"http://hl7.org/fhir/us/cqfmeasures/StructureDefinition/cqfm-testCaseDescription","valueMarkdown":"Dementia medication (as CodeableConcept) starts during MP"}],"modifierExtension":[{"url":"http://hl7.org/fhir/us/cqfmeasures/StructureDefinition/cqfm-isTestCase","valueBoolean":true}],"status":"complete","type":"individual","measure":"https://madie.cms.gov/Measure/CMS165FHIRControllingHighBloodPressure","period":{"start":"2026-01-01","end":"2026-12-31"},"group":[{"id":"Group_1","population":[{"id":"InitialPopulation_1","code":{"coding":[{"system":"http://terminology.hl7.org/CodeSystem/measure-population","code":"initial-population","display":"Initial Population"}]},"count":1},{"id":"Denominator_1","code":{"coding":[{"system":"http://terminology.hl7.org/CodeSystem/measure-population","code":"denominator","display":"Denominator"}]},"count":1},{"id":"DenominatorExclusion_1","code":{"coding":[{"system":"http://terminology.hl7.org/CodeSystem/measure-population","code":"denominator-exclusion","display":"Denominator Exclusion"}]},"count":1},{"id":"Numerator_1","code":{"coding":[{"system":"http://terminology.hl7.org/CodeSystem/measure-population","code":"numerator","display":"Numerator"}]},"count":0}],"measureScore":{"value":1.0}}],"evaluatedResource":[{"reference":"Patient/1905549a-1783-4195-95b9-b0879cb81d96"},{"reference":"Encounter/6042d2a1-883a-4073-8389-379304dd783b"},{"reference":"Condition/004fa403-5317-4541-a559-c12e10edc7de"},{"reference":"MedicationRequest/8e9bfcee-8565-4009-b90e-8deca9f82957"},{"reference":"DeviceRequest/3849ca71-83d3-4453-9f36-b88f5134e924"}]},"request":{"method":"PUT","url":"MeasureReport/de192271-9087-4e65-ad35-2768080be875"}},{"resource":{"resourceType":"Condition","id":"004fa403-5317-4541-a559-c12e10edc7de","meta":{"profile":["http://hl7.org/fhir/us/qicore/StructureDefinition/qicore-condition-problems-health-concerns"]},"clinicalStatus":{"coding":[{"system":"http://terminology.hl7.org/CodeSystem/condition-clinical","code":"active"}]},"category":[{"coding":[{"system":"http://terminology.hl7.org/CodeSystem/condition-category","code":"problem-list-item","display":"Problem List Item"}]}],"code":{"coding":[{"system":"http://snomed.info/sct","code":"371125006","display":"Labile essential hypertension (disorder)"}]},"subject":{"reference":"Patient/1905549a-1783-4195-95b9-b0879cb81d96"},"onsetDateTime":"2026-06-30T23:59:59.000Z"},"request":{"method":"PUT","url":"Condition/004fa403-5317-4541-a559-c12e10edc7de"}},{"resource":{"resourceType":"MedicationRequest","id":"8e9bfcee-8565-4009-b90e-8deca9f82957","meta":{"profile":["http://hl7.org/fhir/us/qicore/StructureDefinition/qicore-medicationrequest"]},"status":"active","intent":"order","doNotPerform":false,"medicationCodeableConcept":{"coding":[{"system":"http://www.nlm.nih.gov/research/umls/rxnorm","code":"312836","display":"rivastigmine 6 MG Oral Capsule"}]},"subject":{"reference":"Patient/1905549a-1783-4195-95b9-b0879cb81d96"},"authoredOn":"2026-12-30T00:00:00.000Z","requester":{"reference":"Practitioner/example"},"dispenseRequest":{"expectedSupplyDuration":{"value":90,"system":"http://unitsofmeasure.org","code":"days"}}},"request":{"method":"PUT","url":"MedicationRequest/8e9bfcee-8565-4009-b90e-8deca9f82957"}},{"resource":{"resourceType":"Patient","id":"1905549a-1783-4195-95b9-b0879cb81d96","meta":{"profile":["http://hl7.org/fhir/us/qicore/StructureDefinition/qicore-patient"]},"extension":[{"url":"http://hl7.org/fhir/us/core/StructureDefinition/us-core-race","extension":[{"url":"ombCategory","valueCoding":{"system":"urn:oid:2.16.840.1.113883.6.238","code":"2028-9","display":"Asian"}},{"url":"text","valueString":"Asian"}]},{"url":"http://hl7.org/fhir/us/core/StructureDefinition/us-core-ethnicity","extension":[{"url":"ombCategory","valueCoding":{"system":"urn:oid:2.16.840.1.113883.6.238","code":"2135-2","display":"Hispanic or Latino"}},{"url":"text","valueString":"Hispanic or Latino"}]}],"identifier":[{"system":"http://hospital.smarthealthit.org","value":"999999995"}],"name":[{"family":"DENEXPass","given":["DementiaStartsDuringMP"]}],"gender":"female","birthDate":"1959-12-31"},"request":{"method":"PUT","url":"Patient/1905549a-1783-4195-95b9-b0879cb81d96"}},{"resource":{"resourceType":"DeviceRequest","id":"3849ca71-83d3-4453-9f36-b88f5134e924","meta":{"profile":["http://hl7.org/fhir/us/qicore/StructureDefinition/qicore-devicerequest"]},"modifierExtension":[{"url":"http://hl7.org/fhir/us/qicore/StructureDefinition/qicore-doNotPeform","valueBoolean":false}],"status":"completed","intent":"order","codeCodeableConcept":{"coding":[{"system":"http://snomed.info/sct","code":"183240000","display":"Self-propelled wheelchair (physical object)"}]},"subject":{"reference":"Patient/1905549a-1783-4195-95b9-b0879cb81d96"},"authoredOn":"2026-11-01T23:59:00.000Z"},"request":{"method":"PUT","url":"DeviceRequest/3849ca71-83d3-4453-9f36-b88f5134e924"}},{"resource":{"resourceType":"MeasureReport","id":"f76c04c0-f7db-46cd-8885-17a0acdcf770","meta":{"profile":["http://hl7.org/fhir/us/cqfmeasures/StructureDefinition/test-case-cqfm"]},"contained":[{"resourceType":"Parameters","id":"2cf5a2b5-49d7-4c78-9e4c-022a4070ddb5-parameters","parameter":[{"name":"subject","valueString":"45e01fed-56bb-483d-a860-af3d566bda11"}]}],"extension":[{"url":"http://hl7.org/fhir/StructureDefinition/cqf-inputParameters","valueReference":{"reference":"#2cf5a2b5-49d7-4c78-9e4c-022a4070ddb5-parameters"}},{"url":"http://hl7.org/fhir/us/cqfmeasures/StructureDefinition/cqfm-testCaseDescription","valueMarkdown":"Dementia MedicationRequest.medication as Reference. Not meeting DENEX due to outstanding issues: https://github.com/cqframework/CQL-Formatting-and-Usage-Wiki/wiki/Authoring-Patterns---QICore-v4.1.1#medication-ordered-as-a-reference, and CQLIT-412."}],"modifierExtension":[{"url":"http://hl7.org/fhir/us/cqfmeasures/StructureDefinition/cqfm-isTestCase","valueBoolean":true}],"status":"complete","type":"individual","measure":"https://madie.cms.gov/Measure/CMS165FHIRControllingHighBloodPressure","period":{"start":"2026-01-01","end":"2026-12-31"},"group":[{"id":"Group_1","population":[{"id":"InitialPopulation_1","code":{"coding":[{"system":"http://terminology.hl7.org/CodeSystem/measure-population","code":"initial-population","display":"Initial Population"}]},"count":1},{"id":"Denominator_1","code":{"coding":[{"system":"http://terminology.hl7.org/CodeSystem/measure-population","code":"denominator","display":"Denominator"}]},"count":1},{"id":"DenominatorExclusion_1","code":{"coding":[{"system":"http://terminology.hl7.org/CodeSystem/measure-population","code":"denominator-exclusion","display":"Denominator Exclusion"}]},"count":0},{"id":"Numerator_1","code":{"coding":[{"system":"http://terminology.hl7.org/CodeSystem/measure-population","code":"numerator","display":"Numerator"}]},"count":0}],"measureScore":{"value":1.0}}],"evaluatedResource":[{"reference":"Patient/45e01fed-56bb-483d-a860-af3d566bda11"},{"reference":"Encounter/5b530992-df04-42ad-a433-381cadaccfdb"},{"reference":"Condition/ebfd8423-12d3-4bfd-bcba-39bf098c58e8"},{"reference":"MedicationRequest/18f17787-dcfd-4f00-a5ea-af3aaf4b4055"},{"reference":"Medication/25119e27-2051-471a-b2ca-e8a09edc03d9"},{"reference":"DeviceRequest/a50e3668-aabe-4d0b-89f9-ad95ae17f7cf"}]},"request":{"method":"PUT","url":"MeasureReport/f76c04c0-f7db-46cd-8885-17a0acdcf770"}},{"resource":{"resourceType":"MedicationRequest","id":"18f17787-dcfd-4f00-a5ea-af3aaf4b4055","meta":{"profile":["http://hl7.org/fhir/us/qicore/StructureDefinition/qicore-medicationrequest"]},"status":"active","intent":"order","doNotPerform":false,"medicationReference":{"reference":"Medication/25119e27-2051-471a-b2ca-e8a09edc03d9"},"subject":{"reference":"Patient/45e01fed-56bb-483d-a860-af3d566bda11"},"authoredOn":"2026-12-30T00:00:00.000Z","requester":{"reference":"Practitioner/example"},"dispenseRequest":{"expectedSupplyDuration":{"value":90,"system":"http://unitsofmeasure.org","code":"days"}}},"request":{"method":"PUT","url":"MedicationRequest/18f17787-dcfd-4f00-a5ea-af3aaf4b4055"}},{"resource":{"resourceType":"Condition","id":"ebfd8423-12d3-4bfd-bcba-39bf098c58e8","meta":{"profile":["http://hl7.org/fhir/us/qicore/StructureDefinition/qicore-condition-encounter-diagnosis"]},"clinicalStatus":{"coding":[{"system":"http://terminology.hl7.org/CodeSystem/condition-clinical","code":"active"}]},"category":[{"coding":[{"system":"http://terminology.hl7.org/CodeSystem/condition-category","code":"problem-list-item","display":"Problem List Item"}]}],"code":{"coding":[{"system":"http://snomed.info/sct","code":"371125006","display":"Labile essential hypertension (disorder)"}]},"subject":{"reference":"Patient/45e01fed-56bb-483d-a860-af3d566bda11"},"onsetDateTime":"2026-06-30T23:59:59.000Z"},"request":{"method":"PUT","url":"Condition/ebfd8423-12d3-4bfd-bcba-39bf098c58e8"}},{"resource":{"resourceType":"DeviceRequest","id":"a50e3668-aabe-4d0b-89f9-ad95ae17f7cf","meta":{"profile":["http://hl7.org/fhir/us/qicore/StructureDefinition/qicore-devicerequest"]},"modifierExtension":[{"url":"http://hl7.org/fhir/us/qicore/StructureDefinition/qicore-doNotPeform","valueBoolean":false}],"status":"completed","intent":"order","codeCodeableConcept":{"coding":[{"system":"http://snomed.info/sct","code":"183240000","display":"Self-propelled wheelchair (physical object)"}]},"subject":{"reference":"Patient/45e01fed-56bb-483d-a860-af3d566bda11"},"authoredOn":"2026-11-01T23:59:00.000Z"},"request":{"method":"PUT","url":"DeviceRequest/a50e3668-aabe-4d0b-89f9-ad95ae17f7cf"}},{"resource":{"resourceType":"Encounter","id":"5b530992-df04-42ad-a433-381cadaccfdb","meta":{"profile":["http://hl7.org/fhir/us/qicore/StructureDefinition/qicore-encounter"]},"status":"finished","class":{"system":"http://terminology.hl7.org/CodeSystem/v3-ActCode","code":"AMB","display":"ambulatory"},"type":[{"coding":[{"system":"http://snomed.info/sct","code":"3391000175108","display":"Office visit for pediatric care and assessment (procedure)"}]}],"subject":{"reference":"Patient/45e01fed-56bb-483d-a860-af3d566bda11"},"period":{"start":"2026-01-01T00:00:00.000Z","end":"2026-01-01T01:00:00.000Z"}},"request":{"method":"PUT","url":"Encounter/5b530992-df04-42ad-a433-381cadaccfdb"}},{"resource":{"resourceType":"Patient","id":"45e01fed-56bb-483d-a860-af3d566bda11","meta":{"profile":["http://hl7.org/fhir/us/qicore/StructureDefinition/qicore-patient"]},"extension":[{"url":"http://hl7.org/fhir/us/core/StructureDefinition/us-core-race","extension":[{"url":"ombCategory","valueCoding":{"system":"urn:oid:2.16.840.1.113883.6.238","code":"2028-9","display":"Asian","userSelected":true}},{"url":"text","valueString":"Asian"}]},{"url":"http://hl7.org/fhir/us/core/StructureDefinition/us-core-ethnicity","extension":[{"url":"ombCategory","valueCoding":{"system":"urn:oid:2.16.840.1.113883.6.238","code":"2135-2","display":"Hispanic or Latino","userSelected":true}},{"url":"text","valueString":"Hispanic or Latino"}]}],"identifier":[{"type":{"coding":[{"system":"http://terminology.hl7.org/CodeSystem/v2-0203","code":"MR"}]},"system":"http://hospital.smarthealthit.org","value":"999999995"}],"name":[{"family":"Bertha","given":["Betty"]}],"gender":"female","birthDate":"1958-12-31"},"request":{"method":"PUT","url":"Patient/45e01fed-56bb-483d-a860-af3d566bda11"}},{"resource":{"resourceType":"Medication","id":"25119e27-2051-471a-b2ca-e8a09edc03d9","meta":{"profile":["http://hl7.org/fhir/us/qicore/StructureDefinition/qicore-medication"]},"code":{"coding":[{"system":"http://www.nlm.nih.gov/research/umls/rxnorm","code":"312836","display":"rivastigmine 6 MG Oral Capsule"}]}},"request":{"method":"PUT","url":"Medication/25119e27-2051-471a-b2ca-e8a09edc03d9"}},{"resource":{"resourceType":"Patient","id":"546de5d8-f614-41c7-938f-671d14e4f540","meta":{"profile":["http://hl7.org/fhir/us/qicore/StructureDefinition/qicore-patient"]},"extension":[{"url":"http://hl7.org/fhir/us/core/StructureDefinition/us-core-race","extension":[{"url":"ombCategory","valueCoding":{"system":"urn:oid:2.16.840.1.113883.6.238","code":"2028-9","display":"Asian"}},{"url":"text","valueString":"Asian"}]},{"url":"http://hl7.org/fhir/us/core/StructureDefinition/us-core-ethnicity","extension":[{"url":"ombCategory","valueCoding":{"system":"urn:oid:2.16.840.1.113883.6.238","code":"2135-2","display":"Hispanic or Latino"}},{"url":"text","valueString":"Hispanic or Latino"}]}],"identifier":[{"system":"http://hospital.smarthealthit.org","value":"999999995"}],"name":[{"family":"IPPass","given":["HomeHealthcareService"]}],"gender":"female","birthDate":"2007-12-31"},"request":{"method":"PUT","url":"Patient/546de5d8-f614-41c7-938f-671d14e4f540"}},{"resource":{"resourceType":"Encounter","id":"cb8f08be-9e13-41f9-9a32-fec7607fb1df","meta":{"profile":["http://hl7.org/fhir/us/qicore/StructureDefinition/qicore-encounter"]},"status":"finished","class":{"system":"http://terminology.hl7.org/CodeSystem/v3-ActCode","code":"AMB","display":"ambulatory"},"type":[{"coding":[{"system":"http://snomed.info/sct","code":"698704008","display":"Home visit for rheumatology service (procedure)"}]}],"subject":{"reference":"Patient/546de5d8-f614-41c7-938f-671d14e4f540"},"period":{"start":"2026-01-01T00:00:00.000Z","end":"2026-01-01T01:00:00.000Z"}},"request":{"method":"PUT","url":"Encounter/cb8f08be-9e13-41f9-9a32-fec7607fb1df"}},{"resource":{"resourceType":"Condition","id":"c3679f89-52e4-4eff-94ec-154bd6a91f5e","meta":{"profile":["http://hl7.org/fhir/us/qicore/StructureDefinition/qicore-condition-encounter-diagnosis"]},"clinicalStatus":{"coding":[{"system":"http://terminology.hl7.org/CodeSystem/condition-clinical","code":"active"}]},"category":[{"coding":[{"system":"http://terminology.hl7.org/CodeSystem/condition-category","code":"problem-list-item","display":"Problem List Item"}]}],"code":{"coding":[{"system":"http://snomed.info/sct","code":"371125006","display":"Labile essential hypertension (disorder)"}]},"subject":{"reference":"Patient/546de5d8-f614-41c7-938f-671d14e4f540"},"onsetDateTime":"2026-06-30T23:59:59.000Z"},"request":{"method":"PUT","url":"Condition/c3679f89-52e4-4eff-94ec-154bd6a91f5e"}},{"resource":{"resourceType":"MeasureReport","id":"8aba3e68-ffd6-4afb-b9e4-6ae0a8aa05a7","meta":{"profile":["http://hl7.org/fhir/us/cqfmeasures/StructureDefinition/test-case-cqfm"]},"contained":[{"resourceType":"Parameters","id":"6f6b88d0-b6b7-442f-970d-f3fe349ff2dc-parameters","parameter":[{"name":"subject","valueString":"546de5d8-f614-41c7-938f-671d14e4f540"}]}],"extension":[{"url":"http://hl7.org/fhir/StructureDefinition/cqf-inputParameters","valueReference":{"reference":"#6f6b88d0-b6b7-442f-970d-f3fe349ff2dc-parameters"}},{"url":"http://hl7.org/fhir/us/cqfmeasures/StructureDefinition/cqfm-testCaseDescription","valueMarkdown":"Home health care service during MP"}],"modifierExtension":[{"url":"http://hl7.org/fhir/us/cqfmeasures/StructureDefinition/cqfm-isTestCase","valueBoolean":true}],"status":"complete","type":"individual","measure":"https://madie.cms.gov/Measure/CMS165FHIRControllingHighBloodPressure","period":{"start":"2026-01-01","end":"2026-12-31"},"group":[{"id":"Group_1","population":[{"id":"InitialPopulation_1","code":{"coding":[{"system":"http://terminology.hl7.org/CodeSystem/measure-population","code":"initial-population","display":"Initial Population"}]},"count":1},{"id":"Denominator_1","code":{"coding":[{"system":"http://terminology.hl7.org/CodeSystem/measure-population","code":"denominator","display":"Denominator"}]},"count":1},{"id":"DenominatorExclusion_1","code":{"coding":[{"system":"http://terminology.hl7.org/CodeSystem/measure-population","code":"denominator-exclusion","display":"Denominator Exclusion"}]},"count":0},{"id":"Numerator_1","code":{"coding":[{"system":"http://terminology.hl7.org/CodeSystem/measure-population","code":"numerator","display":"Numerator"}]},"count":0}],"measureScore":{"value":1.0}}],"evaluatedResource":[{"reference":"Patient/546de5d8-f614-41c7-938f-671d14e4f540"},{"reference":"Encounter/cb8f08be-9e13-41f9-9a32-fec7607fb1df"},{"reference":"Condition/c3679f89-52e4-4eff-94ec-154bd6a91f5e"}]},"request":{"method":"PUT","url":"MeasureReport/8aba3e68-ffd6-4afb-b9e4-6ae0a8aa05a7"}},{"resource":{"resourceType":"Condition","id":"a56a453f-a353-4f35-a66f-0a2a3538d364","meta":{"profile":["http://hl7.org/fhir/us/qicore/StructureDefinition/qicore-condition-encounter-diagnosis"]},"clinicalStatus":{"coding":[{"system":"http://terminology.hl7.org/CodeSystem/condition-clinical","code":"active"}]},"category":[{"coding":[{"system":"http://terminology.hl7.org/CodeSystem/condition-category","code":"problem-list-item","display":"Problem List Item"}]}],"code":{"coding":[{"system":"http://snomed.info/sct","code":"371125006","display":"Labile essential hypertension (disorder)"}]},"subject":{"reference":"Patient/4d50f3eb-f56f-4f13-8fcf-4d26e05b9a6a"},"onsetDateTime":"2026-06-30T23:59:59.000Z"},"request":{"method":"PUT","url":"Condition/a56a453f-a353-4f35-a66f-0a2a3538d364"}},{"resource":{"resourceType":"Patient","id":"4d50f3eb-f56f-4f13-8fcf-4d26e05b9a6a","meta":{"profile":["http://hl7.org/fhir/us/qicore/StructureDefinition/qicore-patient"]},"extension":[{"url":"http://hl7.org/fhir/us/core/StructureDefinition/us-core-race","extension":[{"url":"ombCategory","valueCoding":{"system":"urn:oid:2.16.840.1.113883.6.238","code":"2028-9","display":"Asian"}},{"url":"text","valueString":"Asian"}]},{"url":"http://hl7.org/fhir/us/core/StructureDefinition/us-core-ethnicity","extension":[{"url":"ombCategory","valueCoding":{"system":"urn:oid:2.16.840.1.113883.6.238","code":"2135-2","display":"Hispanic or Latino"}},{"url":"text","valueString":"Hispanic or Latino"}]}],"identifier":[{"system":"http://hospital.smarthealthit.org","value":"999999995"}],"name":[{"family":"IPPass","given":["HypertensionDuringFirst6Months"]}],"gender":"female","birthDate":"2007-12-31"},"request":{"method":"PUT","url":"Patient/4d50f3eb-f56f-4f13-8fcf-4d26e05b9a6a"}},{"resource":{"resourceType":"MeasureReport","id":"5fc403e7-122f-4e51-b881-ecf480bfdf41","meta":{"profile":["http://hl7.org/fhir/us/cqfmeasures/StructureDefinition/test-case-cqfm"]},"contained":[{"resourceType":"Parameters","id":"5ef4213f-75f3-47e7-aa77-dc1c5662c38d-parameters","parameter":[{"name":"subject","valueString":"4d50f3eb-f56f-4f13-8fcf-4d26e05b9a6a"}]}],"extension":[{"url":"http://hl7.org/fhir/StructureDefinition/cqf-inputParameters","valueReference":{"reference":"#5ef4213f-75f3-47e7-aa77-dc1c5662c38d-parameters"}},{"url":"http://hl7.org/fhir/us/cqfmeasures/StructureDefinition/cqfm-testCaseDescription","valueMarkdown":"Hypertension onsets on 6/30"}],"modifierExtension":[{"url":"http://hl7.org/fhir/us/cqfmeasures/StructureDefinition/cqfm-isTestCase","valueBoolean":true}],"status":"complete","type":"individual","measure":"https://madie.cms.gov/Measure/CMS165FHIRControllingHighBloodPressure","period":{"start":"2026-01-01","end":"2026-12-31"},"group":[{"id":"Group_1","population":[{"id":"InitialPopulation_1","code":{"coding":[{"system":"http://terminology.hl7.org/CodeSystem/measure-population","code":"initial-population","display":"Initial Population"}]},"count":1},{"id":"Denominator_1","code":{"coding":[{"system":"http://terminology.hl7.org/CodeSystem/measure-population","code":"denominator","display":"Denominator"}]},"count":1},{"id":"DenominatorExclusion_1","code":{"coding":[{"system":"http://terminology.hl7.org/CodeSystem/measure-population","code":"denominator-exclusion","display":"Denominator Exclusion"}]},"count":0},{"id":"Numerator_1","code":{"coding":[{"system":"http://terminology.hl7.org/CodeSystem/measure-population","code":"numerator","display":"Numerator"}]},"count":0}],"measureScore":{"value":1.0}}],"evaluatedResource":[{"reference":"Patient/4d50f3eb-f56f-4f13-8fcf-4d26e05b9a6a"},{"reference":"Encounter/fdda1a2f-b623-4a0a-83d6-8de1d85a7e79"},{"reference":"Condition/a56a453f-a353-4f35-a66f-0a2a3538d364"},{"reference":"Coverage/1099e029-ea99-43b8-a502-03073f50cec6"}]},"request":{"method":"PUT","url":"MeasureReport/5fc403e7-122f-4e51-b881-ecf480bfdf41"}},{"resource":{"resourceType":"Coverage","id":"1099e029-ea99-43b8-a502-03073f50cec6","meta":{"profile":["http://hl7.org/fhir/us/qicore/StructureDefinition/qicore-coverage"]},"status":"active","type":{"coding":[{"system":"https://nahdo.org/sopt","code":"99","display":"No Typology Code available for payment source"}]},"beneficiary":{"reference":"Patient/4d50f3eb-f56f-4f13-8fcf-4d26e05b9a6a"},"payor":[{"reference":"Organization/example"}]},"request":{"method":"PUT","url":"Coverage/1099e029-ea99-43b8-a502-03073f50cec6"}},{"resource":{"resourceType":"Encounter","id":"fdda1a2f-b623-4a0a-83d6-8de1d85a7e79","meta":{"profile":["http://hl7.org/fhir/us/qicore/StructureDefinition/qicore-encounter"]},"status":"finished","class":{"system":"http://terminology.hl7.org/CodeSystem/v3-ActCode","code":"AMB","display":"ambulatory"},"type":[{"coding":[{"system":"http://snomed.info/sct","code":"3391000175108","display":"Office visit for pediatric care and assessment (procedure)"}]}],"subject":{"reference":"Patient/4d50f3eb-f56f-4f13-8fcf-4d26e05b9a6a"},"period":{"start":"2026-01-01T00:00:00.000Z","end":"2026-01-01T01:00:00.000Z"}},"request":{"method":"PUT","url":"Encounter/fdda1a2f-b623-4a0a-83d6-8de1d85a7e79"}},{"resource":{"resourceType":"Procedure","id":"ba66e3b2-179f-4b10-a652-f14c758f7638","meta":{"profile":["http://hl7.org/fhir/us/qicore/StructureDefinition/qicore-procedure"]},"extension":[{"url":"http://hl7.org/fhir/us/qicore/StructureDefinition/qicore-recorded","valueDateTime":"2025-12-31T00:00:00.000Z"}],"status":"completed","code":{"coding":[{"system":"http://snomed.info/sct","code":"70536003","display":"Transplant of kidney (procedure)"}]},"subject":{"reference":"Patient/7de4b027-eb4c-4a2e-958f-e6b7a3eb6309"},"performedPeriod":{"start":"2026-12-30T00:00:00.000Z","end":"2026-12-30T23:59:59.000Z"}},"request":{"method":"PUT","url":"Procedure/ba66e3b2-179f-4b10-a652-f14c758f7638"}},{"resource":{"resourceType":"Patient","id":"7de4b027-eb4c-4a2e-958f-e6b7a3eb6309","meta":{"profile":["http://hl7.org/fhir/us/qicore/StructureDefinition/qicore-patient"]},"extension":[{"url":"http://hl7.org/fhir/us/core/StructureDefinition/us-core-race","extension":[{"url":"ombCategory","valueCoding":{"system":"urn:oid:2.16.840.1.113883.6.238","code":"2028-9","display":"Asian"}},{"url":"text","valueString":"Asian"}]},{"url":"http://hl7.org/fhir/us/core/StructureDefinition/us-core-ethnicity","extension":[{"url":"ombCategory","valueCoding":{"system":"urn:oid:2.16.840.1.113883.6.238","code":"2135-2","display":"Hispanic or Latino"}},{"url":"text","valueString":"Hispanic or Latino"}]}],"identifier":[{"system":"http://hospital.smarthealthit.org","value":"999999995"}],"name":[{"family":"DENEXPass","given":["KidneyTransplantProcedureDuringMP"]}],"gender":"female","birthDate":"2007-12-31"},"request":{"method":"PUT","url":"Patient/7de4b027-eb4c-4a2e-958f-e6b7a3eb6309"}},{"resource":{"resourceType":"Encounter","id":"a9bf7ffb-c3bc-442d-bb90-146ca67d6ff0","meta":{"profile":["http://hl7.org/fhir/us/qicore/StructureDefinition/qicore-encounter"]},"status":"finished","class":{"system":"http://terminology.hl7.org/CodeSystem/v3-ActCode","code":"AMB","display":"ambulatory"},"type":[{"coding":[{"system":"http://snomed.info/sct","code":"3391000175108","display":"Office visit for pediatric care and assessment (procedure)"}]}],"subject":{"reference":"Patient/7de4b027-eb4c-4a2e-958f-e6b7a3eb6309"},"period":{"start":"2026-01-01T00:00:00.000Z","end":"2026-01-01T01:00:00.000Z"}},"request":{"method":"PUT","url":"Encounter/a9bf7ffb-c3bc-442d-bb90-146ca67d6ff0"}},{"resource":{"resourceType":"Condition","id":"a93c6702-d9d2-48e8-a8ae-c1a8a73a79ee","meta":{"profile":["http://hl7.org/fhir/us/qicore/StructureDefinition/qicore-condition-encounter-diagnosis"]},"clinicalStatus":{"coding":[{"system":"http://terminology.hl7.org/CodeSystem/condition-clinical","code":"active"}]},"category":[{"coding":[{"system":"http://terminology.hl7.org/CodeSystem/condition-category","code":"problem-list-item","display":"Problem List Item"}]}],"code":{"coding":[{"system":"http://snomed.info/sct","code":"371125006","display":"Labile essential hypertension (disorder)"}]},"subject":{"reference":"Patient/7de4b027-eb4c-4a2e-958f-e6b7a3eb6309"},"onsetDateTime":"2026-06-30T23:59:59.000Z"},"request":{"method":"PUT","url":"Condition/a93c6702-d9d2-48e8-a8ae-c1a8a73a79ee"}},{"resource":{"resourceType":"MeasureReport","id":"3a6c8b23-2815-4717-b3b9-5857431b0d1a","meta":{"profile":["http://hl7.org/fhir/us/cqfmeasures/StructureDefinition/test-case-cqfm"]},"contained":[{"resourceType":"Parameters","id":"34f2f5dd-1a61-4516-ae3a-9d8fe7a737a3-parameters","parameter":[{"name":"subject","valueString":"7de4b027-eb4c-4a2e-958f-e6b7a3eb6309"}]}],"extension":[{"url":"http://hl7.org/fhir/StructureDefinition/cqf-inputParameters","valueReference":{"reference":"#34f2f5dd-1a61-4516-ae3a-9d8fe7a737a3-parameters"}},{"url":"http://hl7.org/fhir/us/cqfmeasures/StructureDefinition/cqfm-testCaseDescription","valueMarkdown":"Kidney transplant procedure during MP"}],"modifierExtension":[{"url":"http://hl7.org/fhir/us/cqfmeasures/StructureDefinition/cqfm-isTestCase","valueBoolean":true}],"status":"complete","type":"individual","measure":"https://madie.cms.gov/Measure/CMS165FHIRControllingHighBloodPressure","period":{"start":"2026-01-01","end":"2026-12-31"},"group":[{"id":"Group_1","population":[{"id":"InitialPopulation_1","code":{"coding":[{"system":"http://terminology.hl7.org/CodeSystem/measure-population","code":"initial-population","display":"Initial Population"}]},"count":1},{"id":"Denominator_1","code":{"coding":[{"system":"http://terminology.hl7.org/CodeSystem/measure-population","code":"denominator","display":"Denominator"}]},"count":1},{"id":"DenominatorExclusion_1","code":{"coding":[{"system":"http://terminology.hl7.org/CodeSystem/measure-population","code":"denominator-exclusion","display":"Denominator Exclusion"}]},"count":1},{"id":"Numerator_1","code":{"coding":[{"system":"http://terminology.hl7.org/CodeSystem/measure-population","code":"numerator","display":"Numerator"}]},"count":0}],"measureScore":{"value":1.0}}],"evaluatedResource":[{"reference":"Patient/7de4b027-eb4c-4a2e-958f-e6b7a3eb6309"},{"reference":"Encounter/a9bf7ffb-c3bc-442d-bb90-146ca67d6ff0"},{"reference":"Condition/a93c6702-d9d2-48e8-a8ae-c1a8a73a79ee"},{"reference":"Procedure/ba66e3b2-179f-4b10-a652-f14c758f7638"}]},"request":{"method":"PUT","url":"MeasureReport/3a6c8b23-2815-4717-b3b9-5857431b0d1a"}},{"resource":{"resourceType":"Condition","id":"b01a2b3f-e8f8-42ee-bf05-a901ec7a527c","meta":{"profile":["http://hl7.org/fhir/us/qicore/StructureDefinition/qicore-condition-encounter-diagnosis"]},"clinicalStatus":{"coding":[{"system":"http://terminology.hl7.org/CodeSystem/condition-clinical","code":"active"}]},"category":[{"coding":[{"system":"http://terminology.hl7.org/CodeSystem/condition-category","code":"problem-list-item","display":"Problem List Item"}]}],"code":{"coding":[{"system":"http://snomed.info/sct","code":"371125006","display":"Labile essential hypertension (disorder)"}]},"subject":{"reference":"Patient/0e867903-400d-4d71-a7fd-dc9b96d94a17"},"onsetDateTime":"2026-06-30T23:59:59.000Z"},"request":{"method":"PUT","url":"Condition/b01a2b3f-e8f8-42ee-bf05-a901ec7a527c"}},{"resource":{"resourceType":"MeasureReport","id":"ab647ab9-ba92-4746-856e-4dc4020280ef","meta":{"profile":["http://hl7.org/fhir/us/cqfmeasures/StructureDefinition/test-case-cqfm"]},"contained":[{"resourceType":"Parameters","id":"46287c2a-2725-437c-834b-3d8ce15097e6-parameters","parameter":[{"name":"subject","valueString":"0e867903-400d-4d71-a7fd-dc9b96d94a17"}]}],"extension":[{"url":"http://hl7.org/fhir/StructureDefinition/cqf-inputParameters","valueReference":{"reference":"#46287c2a-2725-437c-834b-3d8ce15097e6-parameters"}},{"url":"http://hl7.org/fhir/us/cqfmeasures/StructureDefinition/cqfm-testCaseDescription","valueMarkdown":"Hospice procedure starts during MP"}],"modifierExtension":[{"url":"http://hl7.org/fhir/us/cqfmeasures/StructureDefinition/cqfm-isTestCase","valueBoolean":true}],"status":"complete","type":"individual","measure":"https://madie.cms.gov/Measure/CMS165FHIRControllingHighBloodPressure","period":{"start":"2026-01-01","end":"2026-12-31"},"group":[{"id":"Group_1","population":[{"id":"InitialPopulation_1","code":{"coding":[{"system":"http://terminology.hl7.org/CodeSystem/measure-population","code":"initial-population","display":"Initial Population"}]},"count":1},{"id":"Denominator_1","code":{"coding":[{"system":"http://terminology.hl7.org/CodeSystem/measure-population","code":"denominator","display":"Denominator"}]},"count":1},{"id":"DenominatorExclusion_1","code":{"coding":[{"system":"http://terminology.hl7.org/CodeSystem/measure-population","code":"denominator-exclusion","display":"Denominator Exclusion"}]},"count":1},{"id":"Numerator_1","code":{"coding":[{"system":"http://terminology.hl7.org/CodeSystem/measure-population","code":"numerator","display":"Numerator"}]},"count":0}],"measureScore":{"value":1.0}}],"evaluatedResource":[{"reference":"Patient/0e867903-400d-4d71-a7fd-dc9b96d94a17"},{"reference":"Encounter/5c33c1ce-1612-496e-81b3-956c2702b307"},{"reference":"Condition/b01a2b3f-e8f8-42ee-bf05-a901ec7a527c"},{"reference":"Procedure/4187978c-727a-4ede-8229-233adcca48fe"}]},"request":{"method":"PUT","url":"MeasureReport/ab647ab9-ba92-4746-856e-4dc4020280ef"}},{"resource":{"resourceType":"Procedure","id":"4187978c-727a-4ede-8229-233adcca48fe","meta":{"profile":["http://hl7.org/fhir/us/qicore/StructureDefinition/qicore-procedure"]},"extension":[{"url":"http://hl7.org/fhir/us/qicore/StructureDefinition/qicore-recorded","valueDateTime":"2026-12-31T00:00:00.000Z"}],"status":"completed","code":{"coding":[{"system":"http://snomed.info/sct","code":"385763009","display":"Hospice care (regime/therapy)"}]},"subject":{"reference":"Patient/0e867903-400d-4d71-a7fd-dc9b96d94a17"},"performedPeriod":{"start":"2026-12-31T00:00:00.000Z","end":"2026-12-31T23:59:59.000Z"}},"request":{"method":"PUT","url":"Procedure/4187978c-727a-4ede-8229-233adcca48fe"}},{"resource":{"resourceType":"Patient","id":"0e867903-400d-4d71-a7fd-dc9b96d94a17","meta":{"profile":["http://hl7.org/fhir/us/qicore/StructureDefinition/qicore-patient"]},"extension":[{"url":"http://hl7.org/fhir/us/core/StructureDefinition/us-core-race","extension":[{"url":"ombCategory","valueCoding":{"system":"urn:oid:2.16.840.1.113883.6.238","code":"2028-9","display":"Asian"}},{"url":"text","valueString":"Asian"}]},{"url":"http://hl7.org/fhir/us/core/StructureDefinition/us-core-ethnicity","extension":[{"url":"ombCategory","valueCoding":{"system":"urn:oid:2.16.840.1.113883.6.238","code":"2135-2","display":"Hispanic or Latino"}},{"url":"text","valueString":"Hispanic or Latino"}]}],"identifier":[{"system":"http://hospital.smarthealthit.org","value":"999999995"}],"name":[{"family":"DENEXPass","given":["HospiceProcedureStartsDuringMP"]}],"gender":"female","birthDate":"2007-12-31"},"request":{"method":"PUT","url":"Patient/0e867903-400d-4d71-a7fd-dc9b96d94a17"}},{"resource":{"resourceType":"Encounter","id":"5c33c1ce-1612-496e-81b3-956c2702b307","meta":{"profile":["http://hl7.org/fhir/us/qicore/StructureDefinition/qicore-encounter"]},"status":"finished","class":{"system":"http://terminology.hl7.org/CodeSystem/v3-ActCode","code":"AMB","display":"ambulatory"},"type":[{"coding":[{"system":"http://snomed.info/sct","code":"3391000175108","display":"Office visit for pediatric care and assessment (procedure)"}]}],"subject":{"reference":"Patient/0e867903-400d-4d71-a7fd-dc9b96d94a17"},"period":{"start":"2026-01-01T00:00:00.000Z","end":"2026-01-01T01:00:00.000Z"}},"request":{"method":"PUT","url":"Encounter/5c33c1ce-1612-496e-81b3-956c2702b307"}},{"resource":{"resourceType":"Condition","id":"9421cf49-b468-43cd-9a78-3e22805b01fa","meta":{"profile":["http://hl7.org/fhir/us/qicore/StructureDefinition/qicore-condition-encounter-diagnosis"]},"clinicalStatus":{"coding":[{"system":"http://terminology.hl7.org/CodeSystem/condition-clinical","code":"active"}]},"category":[{"coding":[{"system":"http://terminology.hl7.org/CodeSystem/condition-category","code":"problem-list-item","display":"Problem List Item"}]}],"code":{"coding":[{"system":"http://snomed.info/sct","code":"371125006","display":"Labile essential hypertension (disorder)"}]},"subject":{"reference":"Patient/78fc0433-a72a-45a3-b2c4-995e614674cb"},"onsetDateTime":"2026-06-30T23:59:59.000Z"},"request":{"method":"PUT","url":"Condition/9421cf49-b468-43cd-9a78-3e22805b01fa"}},{"resource":{"resourceType":"Encounter","id":"c67e1a1e-8d7b-401f-b267-bdf0269cb365-0","meta":{"profile":["http://hl7.org/fhir/us/qicore/StructureDefinition/qicore-encounter"]},"status":"finished","class":{"system":"http://terminology.hl7.org/CodeSystem/v3-ActCode","code":"AMB","display":"ambulatory"},"type":[{"coding":[{"system":"http://www.ama-assn.org/go/cpt","code":"90999","display":"Unlisted dialysis procedure, inpatient or outpatient"}]}],"subject":{"reference":"Patient/78fc0433-a72a-45a3-b2c4-995e614674cb"},"period":{"start":"2026-01-01T00:00:00.000Z","end":"2026-01-01T01:00:00.000Z"}},"request":{"method":"PUT","url":"Encounter/c67e1a1e-8d7b-401f-b267-bdf0269cb365-0"}},{"resource":{"resourceType":"Patient","id":"78fc0433-a72a-45a3-b2c4-995e614674cb","meta":{"profile":["http://hl7.org/fhir/us/qicore/StructureDefinition/qicore-patient"]},"extension":[{"url":"http://hl7.org/fhir/us/core/StructureDefinition/us-core-race","extension":[{"url":"ombCategory","valueCoding":{"system":"urn:oid:2.16.840.1.113883.6.238","code":"2028-9","display":"Asian"}},{"url":"text","valueString":"Asian"}]},{"url":"http://hl7.org/fhir/us/core/StructureDefinition/us-core-ethnicity","extension":[{"url":"ombCategory","valueCoding":{"system":"urn:oid:2.16.840.1.113883.6.238","code":"2135-2","display":"Hispanic or Latino"}},{"url":"text","valueString":"Hispanic or Latino"}]}],"identifier":[{"system":"http://hospital.smarthealthit.org","value":"999999995"}],"name":[{"family":"DENEXPass","given":["ESRDEncDuringMP"]}],"gender":"female","birthDate":"2007-12-31"},"request":{"method":"PUT","url":"Patient/78fc0433-a72a-45a3-b2c4-995e614674cb"}},{"resource":{"resourceType":"MeasureReport","id":"5494ef10-f874-41c3-899d-4e3bb2b3c4fd","meta":{"profile":["http://hl7.org/fhir/us/cqfmeasures/StructureDefinition/test-case-cqfm"]},"contained":[{"resourceType":"Parameters","id":"bfab78c8-f45a-4730-82f8-f7e2636ede12-parameters","parameter":[{"name":"subject","valueString":"78fc0433-a72a-45a3-b2c4-995e614674cb"}]}],"extension":[{"url":"http://hl7.org/fhir/StructureDefinition/cqf-inputParameters","valueReference":{"reference":"#bfab78c8-f45a-4730-82f8-f7e2636ede12-parameters"}},{"url":"http://hl7.org/fhir/us/cqfmeasures/StructureDefinition/cqfm-testCaseDescription","valueMarkdown":"ESRD encounter during MP"}],"modifierExtension":[{"url":"http://hl7.org/fhir/us/cqfmeasures/StructureDefinition/cqfm-isTestCase","valueBoolean":true}],"status":"complete","type":"individual","measure":"https://madie.cms.gov/Measure/CMS165FHIRControllingHighBloodPressure","period":{"start":"2026-01-01","end":"2026-12-31"},"group":[{"id":"Group_1","population":[{"id":"InitialPopulation_1","code":{"coding":[{"system":"http://terminology.hl7.org/CodeSystem/measure-population","code":"initial-population","display":"Initial Population"}]},"count":1},{"id":"Denominator_1","code":{"coding":[{"system":"http://terminology.hl7.org/CodeSystem/measure-population","code":"denominator","display":"Denominator"}]},"count":1},{"id":"DenominatorExclusion_1","code":{"coding":[{"system":"http://terminology.hl7.org/CodeSystem/measure-population","code":"denominator-exclusion","display":"Denominator Exclusion"}]},"count":1},{"id":"Numerator_1","code":{"coding":[{"system":"http://terminology.hl7.org/CodeSystem/measure-population","code":"numerator","display":"Numerator"}]},"count":0}],"measureScore":{"value":1.0}}],"evaluatedResource":[{"reference":"Patient/78fc0433-a72a-45a3-b2c4-995e614674cb"},{"reference":"Encounter/c67e1a1e-8d7b-401f-b267-bdf0269cb365"},{"reference":"Condition/9421cf49-b468-43cd-9a78-3e22805b01fa"},{"reference":"Encounter/c67e1a1e-8d7b-401f-b267-bdf0269cb365-0"}]},"request":{"method":"PUT","url":"MeasureReport/5494ef10-f874-41c3-899d-4e3bb2b3c4fd"}},{"resource":{"resourceType":"Encounter","id":"c67e1a1e-8d7b-401f-b267-bdf0269cb365","meta":{"profile":["http://hl7.org/fhir/us/qicore/StructureDefinition/qicore-encounter"]},"status":"finished","class":{"system":"http://terminology.hl7.org/CodeSystem/v3-ActCode","code":"AMB","display":"ambulatory"},"type":[{"coding":[{"system":"http://snomed.info/sct","code":"3391000175108","display":"Office visit for pediatric care and assessment (procedure)"}]}],"subject":{"reference":"Patient/78fc0433-a72a-45a3-b2c4-995e614674cb"},"period":{"start":"2026-01-01T00:00:00.000Z","end":"2026-01-01T01:00:00.000Z"}},"request":{"method":"PUT","url":"Encounter/c67e1a1e-8d7b-401f-b267-bdf0269cb365"}},{"resource":{"resourceType":"Encounter","id":"6f4ee41d-ff77-483e-b72d-a805c3d080a2","meta":{"profile":["http://hl7.org/fhir/us/qicore/StructureDefinition/qicore-encounter"]},"status":"finished","class":{"system":"http://terminology.hl7.org/CodeSystem/v3-ActCode","code":"AMB","display":"ambulatory"},"type":[{"coding":[{"system":"http://snomed.info/sct","code":"3391000175108","display":"Office visit for pediatric care and assessment (procedure)"}]}],"subject":{"reference":"Patient/4b31dc2b-7867-4766-8a8c-e1971d1e570a"},"period":{"start":"2026-01-01T00:00:00.000Z","end":"2026-01-01T01:00:00.000Z"}},"request":{"method":"PUT","url":"Encounter/6f4ee41d-ff77-483e-b72d-a805c3d080a2"}},{"resource":{"resourceType":"Patient","id":"4b31dc2b-7867-4766-8a8c-e1971d1e570a","meta":{"profile":["http://hl7.org/fhir/us/qicore/StructureDefinition/qicore-patient"]},"extension":[{"url":"http://hl7.org/fhir/us/core/StructureDefinition/us-core-race","extension":[{"url":"ombCategory","valueCoding":{"system":"urn:oid:2.16.840.1.113883.6.238","code":"2028-9","display":"Asian"}},{"url":"text","valueString":"Asian"}]},{"url":"http://hl7.org/fhir/us/core/StructureDefinition/us-core-ethnicity","extension":[{"url":"ombCategory","valueCoding":{"system":"urn:oid:2.16.840.1.113883.6.238","code":"2135-2","display":"Hispanic or Latino"}},{"url":"text","valueString":"Hispanic or Latino"}]}],"identifier":[{"system":"http://hospital.smarthealthit.org","value":"999999995"}],"name":[{"family":"DENEXPass","given":["PalliativeCareEncounterDuringMP"]}],"gender":"female","birthDate":"2007-12-31"},"request":{"method":"PUT","url":"Patient/4b31dc2b-7867-4766-8a8c-e1971d1e570a"}},{"resource":{"resourceType":"Condition","id":"959c9067-e0ba-4b23-a55f-bf82f7138ce0","meta":{"profile":["http://hl7.org/fhir/us/qicore/StructureDefinition/qicore-condition-encounter-diagnosis"]},"clinicalStatus":{"coding":[{"system":"http://terminology.hl7.org/CodeSystem/condition-clinical","code":"active"}]},"category":[{"coding":[{"system":"http://terminology.hl7.org/CodeSystem/condition-category","code":"problem-list-item","display":"Problem List Item"}]}],"code":{"coding":[{"system":"http://snomed.info/sct","code":"371125006","display":"Labile essential hypertension (disorder)"}]},"subject":{"reference":"Patient/4b31dc2b-7867-4766-8a8c-e1971d1e570a"},"onsetDateTime":"2026-06-30T23:59:59.000Z"},"request":{"method":"PUT","url":"Condition/959c9067-e0ba-4b23-a55f-bf82f7138ce0"}},{"resource":{"resourceType":"Encounter","id":"5e3e4ede-573c-433e-b273-bbd19bcffd04","meta":{"profile":["http://hl7.org/fhir/us/qicore/StructureDefinition/qicore-encounter"]},"status":"finished","class":{"system":"http://terminology.hl7.org/CodeSystem/v3-ActCode","code":"AMB","display":"ambulatory"},"type":[{"coding":[{"system":"http://snomed.info/sct","code":"305824005","display":"Seen by palliative care medicine service (finding)"}]}],"subject":{"reference":"Patient/4b31dc2b-7867-4766-8a8c-e1971d1e570a"},"period":{"start":"2026-01-01T00:00:00.000Z","end":"2026-01-01T01:00:00.000Z"}},"request":{"method":"PUT","url":"Encounter/5e3e4ede-573c-433e-b273-bbd19bcffd04"}},{"resource":{"resourceType":"MeasureReport","id":"4a89a647-2b2f-4c8f-ab89-13a9864cb4e2","meta":{"profile":["http://hl7.org/fhir/us/cqfmeasures/StructureDefinition/test-case-cqfm"]},"contained":[{"resourceType":"Parameters","id":"d35880dc-7218-4ad4-89e7-e24246e20ca9-parameters","parameter":[{"name":"subject","valueString":"4b31dc2b-7867-4766-8a8c-e1971d1e570a"}]}],"extension":[{"url":"http://hl7.org/fhir/StructureDefinition/cqf-inputParameters","valueReference":{"reference":"#d35880dc-7218-4ad4-89e7-e24246e20ca9-parameters"}},{"url":"http://hl7.org/fhir/us/cqfmeasures/StructureDefinition/cqfm-testCaseDescription","valueMarkdown":"Palliative care encounter during MP"}],"modifierExtension":[{"url":"http://hl7.org/fhir/us/cqfmeasures/StructureDefinition/cqfm-isTestCase","valueBoolean":true}],"status":"complete","type":"individual","measure":"https://madie.cms.gov/Measure/CMS165FHIRControllingHighBloodPressure","period":{"start":"2026-01-01","end":"2026-12-31"},"group":[{"id":"Group_1","population":[{"id":"InitialPopulation_1","code":{"coding":[{"system":"http://terminology.hl7.org/CodeSystem/measure-population","code":"initial-population","display":"Initial Population"}]},"count":1},{"id":"Denominator_1","code":{"coding":[{"system":"http://terminology.hl7.org/CodeSystem/measure-population","code":"denominator","display":"Denominator"}]},"count":1},{"id":"DenominatorExclusion_1","code":{"coding":[{"system":"http://terminology.hl7.org/CodeSystem/measure-population","code":"denominator-exclusion","display":"Denominator Exclusion"}]},"count":1},{"id":"Numerator_1","code":{"coding":[{"system":"http://terminology.hl7.org/CodeSystem/measure-population","code":"numerator","display":"Numerator"}]},"count":0}],"measureScore":{"value":1.0}}],"evaluatedResource":[{"reference":"Patient/4b31dc2b-7867-4766-8a8c-e1971d1e570a"},{"reference":"Encounter/6f4ee41d-ff77-483e-b72d-a805c3d080a2"},{"reference":"Condition/959c9067-e0ba-4b23-a55f-bf82f7138ce0"},{"reference":"Encounter/5e3e4ede-573c-433e-b273-bbd19bcffd04"}]},"request":{"method":"PUT","url":"MeasureReport/4a89a647-2b2f-4c8f-ab89-13a9864cb4e2"}},{"resource":{"resourceType":"Encounter","id":"2f99e4fd-a8cb-478c-a3e1-576b99314292","meta":{"profile":["http://hl7.org/fhir/us/qicore/StructureDefinition/qicore-encounter"]},"status":"finished","class":{"system":"http://terminology.hl7.org/CodeSystem/v3-ActCode","code":"AMB","display":"ambulatory"},"type":[{"coding":[{"system":"http://snomed.info/sct","code":"3391000175108","display":"Office visit for pediatric care and assessment (procedure)"}]}],"subject":{"reference":"Patient/0b9cb569-149a-4b47-a535-66b59a77bceb"},"period":{"start":"2026-01-01T00:00:00.000Z","end":"2026-01-01T01:00:00.000Z"}},"request":{"method":"PUT","url":"Encounter/2f99e4fd-a8cb-478c-a3e1-576b99314292"}},{"resource":{"resourceType":"Condition","id":"7b977aac-49fb-417f-a0e0-38d27ce66140","meta":{"profile":["http://hl7.org/fhir/us/qicore/StructureDefinition/qicore-condition-problems-health-concerns"]},"clinicalStatus":{"coding":[{"system":"http://terminology.hl7.org/CodeSystem/condition-clinical","code":"active"}]},"category":[{"coding":[{"system":"http://terminology.hl7.org/CodeSystem/condition-category","code":"problem-list-item","display":"Problem List Item"}]}],"code":{"coding":[{"system":"http://hl7.org/fhir/sid/icd-10-cm","code":"N18.5","display":"Chronic kidney disease, stage 5"}]},"subject":{"reference":"Patient/0b9cb569-149a-4b47-a535-66b59a77bceb"},"onsetDateTime":"2026-06-30T23:59:59.000Z"},"request":{"method":"PUT","url":"Condition/7b977aac-49fb-417f-a0e0-38d27ce66140"}},{"resource":{"resourceType":"MeasureReport","id":"b7e24bc8-1a11-46fc-9793-afdf19fa949f","meta":{"profile":["http://hl7.org/fhir/us/cqfmeasures/StructureDefinition/test-case-cqfm"]},"contained":[{"resourceType":"Parameters","id":"d6b161de-decf-4fe5-8106-542578f0b994-parameters","parameter":[{"name":"subject","valueString":"0b9cb569-149a-4b47-a535-66b59a77bceb"}]}],"extension":[{"url":"http://hl7.org/fhir/StructureDefinition/cqf-inputParameters","valueReference":{"reference":"#d6b161de-decf-4fe5-8106-542578f0b994-parameters"}},{"url":"http://hl7.org/fhir/us/cqfmeasures/StructureDefinition/cqfm-testCaseDescription","valueMarkdown":"Chronic kidney disease stage 5 during MP"}],"modifierExtension":[{"url":"http://hl7.org/fhir/us/cqfmeasures/StructureDefinition/cqfm-isTestCase","valueBoolean":true}],"status":"complete","type":"individual","measure":"https://madie.cms.gov/Measure/CMS165FHIRControllingHighBloodPressure","period":{"start":"2026-01-01","end":"2026-12-31"},"group":[{"id":"Group_1","population":[{"id":"InitialPopulation_1","code":{"coding":[{"system":"http://terminology.hl7.org/CodeSystem/measure-population","code":"initial-population","display":"Initial Population"}]},"count":1},{"id":"Denominator_1","code":{"coding":[{"system":"http://terminology.hl7.org/CodeSystem/measure-population","code":"denominator","display":"Denominator"}]},"count":1},{"id":"DenominatorExclusion_1","code":{"coding":[{"system":"http://terminology.hl7.org/CodeSystem/measure-population","code":"denominator-exclusion","display":"Denominator Exclusion"}]},"count":1},{"id":"Numerator_1","code":{"coding":[{"system":"http://terminology.hl7.org/CodeSystem/measure-population","code":"numerator","display":"Numerator"}]},"count":0}],"measureScore":{"value":1.0}}],"evaluatedResource":[{"reference":"Patient/0b9cb569-149a-4b47-a535-66b59a77bceb"},{"reference":"Encounter/2f99e4fd-a8cb-478c-a3e1-576b99314292"},{"reference":"Condition/f90968df-9eea-4e5b-b526-d8b3795d7f2a"},{"reference":"Condition/7b977aac-49fb-417f-a0e0-38d27ce66140"}]},"request":{"method":"PUT","url":"MeasureReport/b7e24bc8-1a11-46fc-9793-afdf19fa949f"}},{"resource":{"resourceType":"Patient","id":"0b9cb569-149a-4b47-a535-66b59a77bceb","meta":{"profile":["http://hl7.org/fhir/us/qicore/StructureDefinition/qicore-patient"]},"extension":[{"url":"http://hl7.org/fhir/us/core/StructureDefinition/us-core-race","extension":[{"url":"ombCategory","valueCoding":{"system":"urn:oid:2.16.840.1.113883.6.238","code":"2028-9","display":"Asian"}},{"url":"text","valueString":"Asian"}]},{"url":"http://hl7.org/fhir/us/core/StructureDefinition/us-core-ethnicity","extension":[{"url":"ombCategory","valueCoding":{"system":"urn:oid:2.16.840.1.113883.6.238","code":"2135-2","display":"Hispanic or Latino"}},{"url":"text","valueString":"Hispanic or Latino"}]}],"identifier":[{"system":"http://hospital.smarthealthit.org","value":"999999995"}],"name":[{"family":"DENEXPass","given":["ChronicKidneyDiseaseStage5DuringMP"]}],"gender":"female","birthDate":"2007-12-31"},"request":{"method":"PUT","url":"Patient/0b9cb569-149a-4b47-a535-66b59a77bceb"}},{"resource":{"resourceType":"Condition","id":"f90968df-9eea-4e5b-b526-d8b3795d7f2a","meta":{"profile":["http://hl7.org/fhir/us/qicore/StructureDefinition/qicore-condition-encounter-diagnosis"]},"clinicalStatus":{"coding":[{"system":"http://terminology.hl7.org/CodeSystem/condition-clinical","code":"active"}]},"category":[{"coding":[{"system":"http://terminology.hl7.org/CodeSystem/condition-category","code":"problem-list-item","display":"Problem List Item"}]}],"code":{"coding":[{"system":"http://snomed.info/sct","code":"371125006","display":"Labile essential hypertension (disorder)"}]},"subject":{"reference":"Patient/0b9cb569-149a-4b47-a535-66b59a77bceb"},"onsetDateTime":"2026-06-30T23:59:59.000Z"},"request":{"method":"PUT","url":"Condition/f90968df-9eea-4e5b-b526-d8b3795d7f2a"}},{"resource":{"resourceType":"Measure","id":"CMS165FHIRControllingHighBloodPressure","meta":{"profile":["http://hl7.org/fhir/uv/crmi/StructureDefinition/crmi-shareablemeasure","http://hl7.org/fhir/us/cqfmeasures/StructureDefinition/computable-measure-cqfm","http://hl7.org/fhir/us/cqfmeasures/StructureDefinition/publishable-measure-cqfm","http://hl7.org/fhir/us/cqfmeasures/StructureDefinition/executable-measure-cqfm","http://hl7.org/fhir/us/cqfmeasures/StructureDefinition/cql-measure-cqfm","http://hl7.org/fhir/us/cqfmeasures/StructureDefinition/elm-measure-cqfm","http://hl7.org/fhir/us/cqfmeasures/StructureDefinition/proportion-measure-cqfm"]},"contained":[{"resourceType":"Library","id":"effective-data-requirements","extension":[{"url":"http://hl7.org/fhir/us/cqfmeasures/StructureDefinition/cqfm-directReferenceCode","valueCoding":{"system":"http://snomed.info/sct","code":"248153007","display":"Male (finding)"}},{"url":"http://hl7.org/fhir/us/cqfmeasures/StructureDefinition/cqfm-directReferenceCode","valueCoding":{"system":"http://snomed.info/sct","code":"248152002","display":"Female (finding)"}},{"url":"http://hl7.org/fhir/us/cqfmeasures/StructureDefinition/cqfm-directReferenceCode","valueCoding":{"system":"http://loinc.org","code":"8480-6","display":"Systolic blood pressure"}},{"url":"http://hl7.org/fhir/us/cqfmeasures/StructureDefinition/cqfm-directReferenceCode","valueCoding":{"system":"http://loinc.org","code":"8462-4","display":"Diastolic blood pressure"}},{"url":"http://hl7.org/fhir/us/cqfmeasures/StructureDefinition/cqfm-directReferenceCode","valueCoding":{"system":"http://snomed.info/sct","code":"428361000124107","display":"Discharge to home for hospice care (procedure)"}},{"url":"http://hl7.org/fhir/us/cqfmeasures/StructureDefinition/cqfm-directReferenceCode","valueCoding":{"system":"http://snomed.info/sct","code":"428371000124100","display":"Discharge to healthcare facility for hospice care (procedure)"}},{"url":"http://hl7.org/fhir/us/cqfmeasures/StructureDefinition/cqfm-directReferenceCode","valueCoding":{"system":"http://loinc.org","code":"45755-6","display":"Hospice care [Minimum Data Set]"}},{"url":"http://hl7.org/fhir/us/cqfmeasures/StructureDefinition/cqfm-directReferenceCode","valueCoding":{"system":"http://snomed.info/sct","code":"373066001","display":"Yes (qualifier value)"}},{"url":"http://hl7.org/fhir/us/cqfmeasures/StructureDefinition/cqfm-directReferenceCode","valueCoding":{"system":"http://loinc.org","code":"98181-1","display":"Medical equipment used"}},{"url":"http://hl7.org/fhir/us/cqfmeasures/StructureDefinition/cqfm-directReferenceCode","valueCoding":{"system":"http://loinc.org","code":"71802-3","display":"Housing status"}},{"url":"http://hl7.org/fhir/us/cqfmeasures/StructureDefinition/cqfm-directReferenceCode","valueCoding":{"system":"http://snomed.info/sct","code":"160734000","display":"Lives in a nursing home (finding)"}},{"url":"http://hl7.org/fhir/us/cqfmeasures/StructureDefinition/cqfm-directReferenceCode","valueCoding":{"system":"http://loinc.org","code":"71007-9","display":"Functional Assessment of Chronic Illness Therapy - Palliative Care Questionnaire (FACIT-Pal)"}},{"url":"http://hl7.org/fhir/us/cqfmeasures/StructureDefinition/cqfm-logicDefinition","extension":[{"url":"libraryName","valueString":"SupplementalDataElements"},{"url":"name","valueString":"SDE Sex"},{"url":"statement","valueString":"define \"SDE Sex\":\n  case\n    when Patient.sex = '248153007' then \"Male (finding)\"\n    when Patient.sex = '248152002' then \"Female (finding)\"\n    else null\n  end"},{"url":"displaySequence","valueInteger":0}]},{"url":"http://hl7.org/fhir/us/cqfmeasures/StructureDefinition/cqfm-logicDefinition","extension":[{"url":"libraryName","valueString":"CMS165FHIRControllingHighBloodPressure"},{"url":"name","valueString":"SDE Sex"},{"url":"statement","valueString":"define \"SDE Sex\":\n  SDE.\"SDE Sex\""},{"url":"displaySequence","valueInteger":1}]},{"url":"http://hl7.org/fhir/us/cqfmeasures/StructureDefinition/cqfm-logicDefinition","extension":[{"url":"libraryName","valueString":"CMS165FHIRControllingHighBloodPressure"},{"url":"name","valueString":"Qualifying Systolic Blood Pressure Reading"},{"url":"statement","valueString":"define \"Qualifying Systolic Blood Pressure Reading\":\n  ( ( [USCoreBloodPressureProfile] ).isObservationBP ( ) ) BloodPressure\n    where ( not ( ( BloodPressure.encounter.getEncounter ( ) ).class.code in { 'EMER', 'IMP', 'ACUTE', 'NONAC', 'PRENC', 'SS' } ) )\n      and BloodPressure.effective.latest ( ) during day of \"Measurement Period\""},{"url":"displaySequence","valueInteger":2}]},{"url":"http://hl7.org/fhir/us/cqfmeasures/StructureDefinition/cqfm-logicDefinition","extension":[{"url":"libraryName","valueString":"CMS165FHIRControllingHighBloodPressure"},{"url":"name","valueString":"Qualifying Diastolic Blood Pressure Reading"},{"url":"statement","valueString":"define \"Qualifying Diastolic Blood Pressure Reading\":\n  ( ( [USCoreBloodPressureProfile] ).isObservationBP ( ) ) BloodPressure\n    where ( not ( ( BloodPressure.encounter.getEncounter ( ) ).class.code in { 'EMER', 'IMP', 'ACUTE', 'NONAC', 'PRENC', 'SS' } ) )\n      and BloodPressure.effective.latest ( ) during day of \"Measurement Period\""},{"url":"displaySequence","valueInteger":3}]},{"url":"http://hl7.org/fhir/us/cqfmeasures/StructureDefinition/cqfm-logicDefinition","extension":[{"url":"libraryName","valueString":"CMS165FHIRControllingHighBloodPressure"},{"url":"name","valueString":"Blood Pressure Days"},{"url":"statement","valueString":"define \"Blood Pressure Days\":\n  ( \"Qualifying Diastolic Blood Pressure Reading\" DBPExam\n      return date from DBPExam.effective.latest ( )\n  )\n    intersect ( \"Qualifying Systolic Blood Pressure Reading\" SBPExam\n        return date from SBPExam.effective.latest ( )\n    )"},{"url":"displaySequence","valueInteger":4}]},{"url":"http://hl7.org/fhir/us/cqfmeasures/StructureDefinition/cqfm-logicDefinition","extension":[{"url":"libraryName","valueString":"CMS165FHIRControllingHighBloodPressure"},{"url":"name","valueString":"Most Recent Blood Pressure Day"},{"url":"statement","valueString":"define \"Most Recent Blood Pressure Day\":\n  Last(\"Blood Pressure Days\" BPDays\n      sort asc\n  )"},{"url":"displaySequence","valueInteger":5}]},{"url":"http://hl7.org/fhir/us/cqfmeasures/StructureDefinition/cqfm-logicDefinition","extension":[{"url":"libraryName","valueString":"CMS165FHIRControllingHighBloodPressure"},{"url":"name","valueString":"Lowest Systolic Reading on Most Recent Blood Pressure Day"},{"url":"statement","valueString":"define \"Lowest Systolic Reading on Most Recent Blood Pressure Day\":\n  First(\"Qualifying Systolic Blood Pressure Reading\" SBPReading\n      where SBPReading.effective.latest() same day as \"Most Recent Blood Pressure Day\"\n      return singleton from(SBPReading.component SBPComponent\n          where SBPComponent.code ~ \"Systolic blood pressure\"\n          return SBPComponent.value as Quantity\n      )\n      sort asc\n  )"},{"url":"displaySequence","valueInteger":6}]},{"url":"http://hl7.org/fhir/us/cqfmeasures/StructureDefinition/cqfm-logicDefinition","extension":[{"url":"libraryName","valueString":"CMS165FHIRControllingHighBloodPressure"},{"url":"name","valueString":"Has Systolic Blood Pressure Less Than 140"},{"url":"statement","valueString":"define \"Has Systolic Blood Pressure Less Than 140\":\n  \"Lowest Systolic Reading on Most Recent Blood Pressure Day\" < 140 'mm[Hg]'"},{"url":"displaySequence","valueInteger":7}]},{"url":"http://hl7.org/fhir/us/cqfmeasures/StructureDefinition/cqfm-logicDefinition","extension":[{"url":"libraryName","valueString":"CMS165FHIRControllingHighBloodPressure"},{"url":"name","valueString":"Lowest Diastolic Reading on Most Recent Blood Pressure Day"},{"url":"statement","valueString":"define \"Lowest Diastolic Reading on Most Recent Blood Pressure Day\":\n  First(\"Qualifying Diastolic Blood Pressure Reading\" DBPReading\n      where DBPReading.effective.latest() same day as \"Most Recent Blood Pressure Day\"\n      return singleton from(DBPReading.component DBPComponent\n          where DBPComponent.code ~ \"Diastolic blood pressure\"\n          return DBPComponent.value as Quantity\n      )\n      sort asc\n  )"},{"url":"displaySequence","valueInteger":8}]},{"url":"http://hl7.org/fhir/us/cqfmeasures/StructureDefinition/cqfm-logicDefinition","extension":[{"url":"libraryName","valueString":"CMS165FHIRControllingHighBloodPressure"},{"url":"name","valueString":"Has Diastolic Blood Pressure Less Than 90"},{"url":"statement","valueString":"define \"Has Diastolic Blood Pressure Less Than 90\":\n  \"Lowest Diastolic Reading on Most Recent Blood Pressure Day\" < 90 'mm[Hg]'"},{"url":"displaySequence","valueInteger":9}]},{"url":"http://hl7.org/fhir/us/cqfmeasures/StructureDefinition/cqfm-logicDefinition","extension":[{"url":"libraryName","valueString":"CMS165FHIRControllingHighBloodPressure"},{"url":"name","valueString":"Numerator"},{"url":"statement","valueString":"define \"Numerator\":\n  \"Has Systolic Blood Pressure Less Than 140\"\n    and \"Has Diastolic Blood Pressure Less Than 90\""},{"url":"displaySequence","valueInteger":10}]},{"url":"http://hl7.org/fhir/us/cqfmeasures/StructureDefinition/cqfm-logicDefinition","extension":[{"url":"libraryName","valueString":"CMS165FHIRControllingHighBloodPressure"},{"url":"name","valueString":"Essential Hypertension Diagnosis"},{"url":"statement","valueString":"define \"Essential Hypertension Diagnosis\":\n  ( [ConditionProblemsHealthConcerns: \"Essential Hypertension\"]\n    union [ConditionEncounterDiagnosis: \"Essential Hypertension\"] ) Hypertension\n    where Hypertension.prevalenceInterval ( ) overlaps Interval[start of \"Measurement Period\", start of \"Measurement Period\" + 6 months )"},{"url":"displaySequence","valueInteger":11}]},{"url":"http://hl7.org/fhir/us/cqfmeasures/StructureDefinition/cqfm-logicDefinition","extension":[{"url":"libraryName","valueString":"AdultOutpatientEncounters"},{"url":"name","valueString":"Qualifying Encounters"},{"url":"statement","valueString":"define \"Qualifying Encounters\":\n  ( ( [Encounter: \"Office Visit\"]\n    union [Encounter: \"Annual Wellness Visit\"]\n    union [Encounter: \"Preventive Care Services Established Office Visit, 18 and Up\"]\n    union [Encounter: \"Preventive Care Services Initial Office Visit, 18 and Up\"]\n    union [Encounter: \"Home Healthcare Services\"]\n    union [Encounter: \"Virtual Encounter\"]\n    union [Encounter: \"Telephone Visits\"] ).isEncounterPerformed() ) ValidEncounter\n    where ValidEncounter.period.toInterval() during day of \"Measurement Period\""},{"url":"displaySequence","valueInteger":12}]},{"url":"http://hl7.org/fhir/us/cqfmeasures/StructureDefinition/cqfm-logicDefinition","extension":[{"url":"libraryName","valueString":"CMS165FHIRControllingHighBloodPressure"},{"url":"name","valueString":"Initial Population"},{"url":"statement","valueString":"define \"Initial Population\":\n  AgeInYearsAt(date from \n    end of \"Measurement Period\"\n  ) in Interval[18, 85]\n    and exists \"Essential Hypertension Diagnosis\"\n    and exists AdultOutpatientEncounters.\"Qualifying Encounters\""},{"url":"displaySequence","valueInteger":13}]},{"url":"http://hl7.org/fhir/us/cqfmeasures/StructureDefinition/cqfm-logicDefinition","extension":[{"url":"libraryName","valueString":"CMS165FHIRControllingHighBloodPressure"},{"url":"name","valueString":"Denominator"},{"url":"statement","valueString":"define \"Denominator\":\n  \"Initial Population\""},{"url":"displaySequence","valueInteger":14}]},{"url":"http://hl7.org/fhir/us/cqfmeasures/StructureDefinition/cqfm-logicDefinition","extension":[{"url":"libraryName","valueString":"SupplementalDataElements"},{"url":"name","valueString":"SDE Payer"},{"url":"statement","valueString":"define \"SDE Payer\":\n  [Coverage: type in \"Payer Type\"] Payer\n    return {\n      code: Payer.type,\n      period: Payer.period\n    }"},{"url":"displaySequence","valueInteger":15}]},{"url":"http://hl7.org/fhir/us/cqfmeasures/StructureDefinition/cqfm-logicDefinition","extension":[{"url":"libraryName","valueString":"CMS165FHIRControllingHighBloodPressure"},{"url":"name","valueString":"SDE Payer"},{"url":"statement","valueString":"define \"SDE Payer\":\n  SDE.\"SDE Payer\""},{"url":"displaySequence","valueInteger":16}]},{"url":"http://hl7.org/fhir/us/cqfmeasures/StructureDefinition/cqfm-logicDefinition","extension":[{"url":"libraryName","valueString":"CMS165FHIRControllingHighBloodPressure"},{"url":"name","valueString":"Initial Population"},{"url":"statement","valueString":"define \"Initial Population\":\n  AgeInYearsAt(date from \n    end of \"Measurement Period\"\n  ) in Interval[18, 85]\n    and exists \"Essential Hypertension Diagnosis\"\n    and exists AdultOutpatientEncounters.\"Qualifying Encounters\""},{"url":"displaySequence","valueInteger":17}]},{"url":"http://hl7.org/fhir/us/cqfmeasures/StructureDefinition/cqfm-logicDefinition","extension":[{"url":"libraryName","valueString":"SupplementalDataElements"},{"url":"name","valueString":"SDE Ethnicity"},{"url":"statement","valueString":"define \"SDE Ethnicity\":\n  Patient.ethnicity E\n    return Tuple {\n      codes: { E.ombCategory } union E.detailed,\n      display: E.text\n    }"},{"url":"displaySequence","valueInteger":18}]},{"url":"http://hl7.org/fhir/us/cqfmeasures/StructureDefinition/cqfm-logicDefinition","extension":[{"url":"libraryName","valueString":"CMS165FHIRControllingHighBloodPressure"},{"url":"name","valueString":"SDE Ethnicity"},{"url":"statement","valueString":"define \"SDE Ethnicity\":\n  SDE.\"SDE Ethnicity\""},{"url":"displaySequence","valueInteger":19}]},{"url":"http://hl7.org/fhir/us/cqfmeasures/StructureDefinition/cqfm-logicDefinition","extension":[{"url":"libraryName","valueString":"Hospice"},{"url":"name","valueString":"Has Hospice Services"},{"url":"statement","valueString":"define \"Has Hospice Services\":\n  exists ((([Encounter: \"Encounter Inpatient\"]).isEncounterPerformed()) InpatientEncounter\n      where (InpatientEncounter.hospitalization.dischargeDisposition ~ \"Discharge to home for hospice care (procedure)\"\n          or InpatientEncounter.hospitalization.dischargeDisposition ~ \"Discharge to healthcare facility for hospice care (procedure)\"\n      )\n        and InpatientEncounter.period.toInterval() ends during day of \"Measurement Period\"\n  )\n    or exists ((([Encounter: \"Hospice Encounter\"]).isEncounterPerformed()) HospiceEncounter\n        where HospiceEncounter.period.toInterval() overlaps day of \"Measurement Period\"\n    )\n    or exists ((([ObservationScreeningAssessment: \"Hospice care [Minimum Data Set]\"]).isAssessmentPerformed()) HospiceAssessment\n        where HospiceAssessment.value ~ \"Yes (qualifier value)\"\n          and HospiceAssessment.effective.toInterval() overlaps day of \"Measurement Period\"\n    )\n    or exists ((([ServiceRequest: \"Hospice Care Ambulatory\"]).isInterventionOrder()) HospiceOrder\n        where HospiceOrder.authoredOn.toInterval() during day of \"Measurement Period\"\n    )\n    or exists ((([Procedure: \"Hospice Care Ambulatory\"]).isInterventionPerformed()) HospicePerformed\n        where HospicePerformed.performed.toInterval() overlaps day of \"Measurement Period\"\n    )\n    or exists ((([ConditionProblemsHealthConcerns: \"Hospice Diagnosis\"])\n        union ([ConditionEncounterDiagnosis: \"Hospice Diagnosis\"])) HospiceCareDiagnosis\n        where HospiceCareDiagnosis.prevalenceInterval() overlaps day of \"Measurement Period\"\n    )"},{"url":"displaySequence","valueInteger":20}]},{"url":"http://hl7.org/fhir/us/cqfmeasures/StructureDefinition/cqfm-logicDefinition","extension":[{"url":"libraryName","valueString":"CMS165FHIRControllingHighBloodPressure"},{"url":"name","valueString":"Pregnancy or Renal Diagnosis"},{"url":"statement","valueString":"define \"Pregnancy or Renal Diagnosis\":\n  ( [ConditionProblemsHealthConcerns: \"Pregnancy\"]\n    union [ConditionEncounterDiagnosis: \"Pregnancy\"]\n    union [ConditionProblemsHealthConcerns: \"End Stage Renal Disease\"]\n    union [ConditionEncounterDiagnosis: \"End Stage Renal Disease\"]\n    union [ConditionProblemsHealthConcerns: \"Kidney Transplant Recipient\"]\n    union [ConditionEncounterDiagnosis: \"Kidney Transplant Recipient\"]\n    union [ConditionProblemsHealthConcerns: \"Chronic Kidney Disease, Stage 5\"]\n    union [ConditionEncounterDiagnosis: \"Chronic Kidney Disease, Stage 5\"] ) PregnancyESRDDiagnosis\n    where PregnancyESRDDiagnosis.prevalenceInterval ( ) overlaps \"Measurement Period\""},{"url":"displaySequence","valueInteger":21}]},{"url":"http://hl7.org/fhir/us/cqfmeasures/StructureDefinition/cqfm-logicDefinition","extension":[{"url":"libraryName","valueString":"CMS165FHIRControllingHighBloodPressure"},{"url":"name","valueString":"End Stage Renal Disease Procedures"},{"url":"statement","valueString":"define \"End Stage Renal Disease Procedures\":\n  ( ( [Procedure: \"Kidney Transplant\"]\n      union [Procedure: \"Dialysis Services\"]\n  ).isProcedurePerformed ( ) ) ESRDProcedure\n    where ESRDProcedure.performed.toInterval ( ) ends on or before end of \"Measurement Period\""},{"url":"displaySequence","valueInteger":22}]},{"url":"http://hl7.org/fhir/us/cqfmeasures/StructureDefinition/cqfm-logicDefinition","extension":[{"url":"libraryName","valueString":"CMS165FHIRControllingHighBloodPressure"},{"url":"name","valueString":"End Stage Renal Disease Encounter"},{"url":"statement","valueString":"define \"End Stage Renal Disease Encounter\":\n  ( ( [Encounter: \"ESRD Monthly Outpatient Services\"] ).isEncounterPerformed ( ) ) ESRDEncounter\n    where ESRDEncounter.period.toInterval ( ) starts on or before end of \"Measurement Period\""},{"url":"displaySequence","valueInteger":23}]},{"url":"http://hl7.org/fhir/us/cqfmeasures/StructureDefinition/cqfm-logicDefinition","extension":[{"url":"libraryName","valueString":"AdvancedIllnessandFrailty"},{"url":"name","valueString":"Has Criteria Indicating Frailty"},{"url":"statement","valueString":"define \"Has Criteria Indicating Frailty\":\n  exists ( (([DeviceRequest: \"Frailty Device\"]).isDeviceOrder()) FrailtyDeviceOrder\n      where FrailtyDeviceOrder.authoredOn.toInterval() during day of \"Measurement Period\"\n  )\n    or exists ( (([ObservationScreeningAssessment: \"Medical equipment used\"]).isAssessmentPerformed()) EquipmentUsed\n        where EquipmentUsed.value as Concept in \"Frailty Device\" \n        and EquipmentUsed.effective.toInterval() ends during day of \"Measurement Period\"\n    )\n    or exists ( (([ConditionProblemsHealthConcerns: \"Frailty Diagnosis\"])\n    union ([ConditionEncounterDiagnosis: \"Frailty Diagnosis\"])) FrailtyDiagnosis\n        where FrailtyDiagnosis.prevalenceInterval() overlaps day of \"Measurement Period\"\n    )\n    or exists ( (([Encounter: \"Frailty Encounter\"]).isEncounterPerformed()) FrailtyEncounter\n        where FrailtyEncounter.period.toInterval() overlaps day of \"Measurement Period\"\n    )\n    or exists ( (([SimpleObservation: \"Frailty Symptom\"]).isSymptom()) FrailtySymptom\n        where FrailtySymptom.effective.toInterval() overlaps day of \"Measurement Period\"\n    )"},{"url":"displaySequence","valueInteger":24}]},{"url":"http://hl7.org/fhir/us/cqfmeasures/StructureDefinition/cqfm-logicDefinition","extension":[{"url":"libraryName","valueString":"AdvancedIllnessandFrailty"},{"url":"name","valueString":"Has Advanced Illness in Year Before or During Measurement Period"},{"url":"statement","valueString":"define \"Has Advanced Illness in Year Before or During Measurement Period\":\nexists ((([ConditionProblemsHealthConcerns: \"Advanced Illness\"])\nunion ([ConditionEncounterDiagnosis: \"Advanced Illness\"])) AdvancedIllnessDiagnosis\nwhere AdvancedIllnessDiagnosis.prevalenceInterval() starts during day of Interval[start of \"Measurement Period\" - 1 year, end of \"Measurement Period\"])"},{"url":"displaySequence","valueInteger":25}]},{"url":"http://hl7.org/fhir/us/cqfmeasures/StructureDefinition/cqfm-logicDefinition","extension":[{"url":"libraryName","valueString":"AdvancedIllnessandFrailty"},{"url":"name","valueString":"Has Dementia Medications in Year Before or During Measurement Period"},{"url":"statement","valueString":"define \"Has Dementia Medications in Year Before or During Measurement Period\":\n  exists (( ([MedicationRequest: medication in \"Dementia Medications\"]).isMedicationActive()) DementiaMedication\n      where DementiaMedication.medicationRequestPeriod() overlaps day of Interval[start of \"Measurement Period\" - 1 year, \n        end of \"Measurement Period\"]\n  )"},{"url":"displaySequence","valueInteger":26}]},{"url":"http://hl7.org/fhir/us/cqfmeasures/StructureDefinition/cqfm-logicDefinition","extension":[{"url":"libraryName","valueString":"AdvancedIllnessandFrailty"},{"url":"name","valueString":"Is Age 66 to 80 with Advanced Illness and Frailty or Is Age 81 or Older with Frailty"},{"url":"statement","valueString":"define \"Is Age 66 to 80 with Advanced Illness and Frailty or Is Age 81 or Older with Frailty\":\n  ( AgeInYearsAt(date from end of \"Measurement Period\")in Interval[66, 80]\n      and \"Has Criteria Indicating Frailty\"\n      and ( \"Has Advanced Illness in Year Before or During Measurement Period\"\n          or \"Has Dementia Medications in Year Before or During Measurement Period\"\n      )\n  )\n    or ( AgeInYearsAt(date from end of \"Measurement Period\")>= 81\n        and \"Has Criteria Indicating Frailty\"\n    )"},{"url":"displaySequence","valueInteger":27}]},{"url":"http://hl7.org/fhir/us/cqfmeasures/StructureDefinition/cqfm-logicDefinition","extension":[{"url":"libraryName","valueString":"AdvancedIllnessandFrailty"},{"url":"name","valueString":"Is Age 66 or Older Living Long Term in a Nursing Home"},{"url":"statement","valueString":"define \"Is Age 66 or Older Living Long Term in a Nursing Home\":\n  AgeInYearsAt(date from \n     end of \"Measurement Period\"\n  )>= 66\n    and ( ( Last( (([ObservationScreeningAssessment: \"Housing status\"]).isAssessmentPerformed()) HousingStatus    \n          where HousingStatus.effective.toInterval() ends on or before \n          day of end of \"Measurement Period\"\n          sort by \n          end of effective.toInterval() asc\n      )) LastHousingStatus\n        where LastHousingStatus.value ~ \"Lives in a nursing home (finding)\"\n    ) is not null"},{"url":"displaySequence","valueInteger":28}]},{"url":"http://hl7.org/fhir/us/cqfmeasures/StructureDefinition/cqfm-logicDefinition","extension":[{"url":"libraryName","valueString":"PalliativeCare"},{"url":"name","valueString":"Has Palliative Care in the Measurement Period"},{"url":"statement","valueString":"define \"Has Palliative Care in the Measurement Period\":\n  exists ((([ObservationScreeningAssessment: \"Functional Assessment of Chronic Illness Therapy - Palliative Care Questionnaire (FACIT-Pal)\"]).isAssessmentPerformed()) PalliativeAssessment\n      where PalliativeAssessment.effective.toInterval() overlaps day of \"Measurement Period\"\n  )\n    or exists ((([ConditionProblemsHealthConcerns: \"Palliative Care Diagnosis\"])\n    union ([ConditionEncounterDiagnosis: \"Palliative Care Diagnosis\"])) PalliativeDiagnosis\n        where PalliativeDiagnosis.prevalenceInterval() overlaps day of \"Measurement Period\"\n    )\n    or exists ((([Encounter: \"Palliative Care Encounter\"]).isEncounterPerformed()) PalliativeEncounter\n        where PalliativeEncounter.period.toInterval() overlaps day of \"Measurement Period\"\n    )\n    or exists ((([Procedure: \"Palliative Care Intervention\"]).isInterventionPerformed()) PalliativeIntervention\n        where PalliativeIntervention.performed.toInterval() overlaps day of \"Measurement Period\"\n    )"},{"url":"displaySequence","valueInteger":29}]},{"url":"http://hl7.org/fhir/us/cqfmeasures/StructureDefinition/cqfm-logicDefinition","extension":[{"url":"libraryName","valueString":"CMS165FHIRControllingHighBloodPressure"},{"url":"name","valueString":"Denominator Exclusions"},{"url":"statement","valueString":"define \"Denominator Exclusions\":\n  Hospice.\"Has Hospice Services\"\n    or exists ( \"Pregnancy or Renal Diagnosis\" )\n    or exists ( \"End Stage Renal Disease Procedures\" )\n    or exists ( \"End Stage Renal Disease Encounter\" )\n    or AIFrailLTCF.\"Is Age 66 to 80 with Advanced Illness and Frailty or Is Age 81 or Older with Frailty\"\n    or AIFrailLTCF.\"Is Age 66 or Older Living Long Term in a Nursing Home\"\n    or PalliativeCare.\"Has Palliative Care in the Measurement Period\""},{"url":"displaySequence","valueInteger":30}]},{"url":"http://hl7.org/fhir/us/cqfmeasures/StructureDefinition/cqfm-logicDefinition","extension":[{"url":"libraryName","valueString":"SupplementalDataElements"},{"url":"name","valueString":"SDE Race"},{"url":"statement","valueString":"define \"SDE Race\":\n  Patient.race R\n    return Tuple {\n      codes: R.ombCategory union R.detailed,\n      display: R.text\n    }"},{"url":"displaySequence","valueInteger":31}]},{"url":"http://hl7.org/fhir/us/cqfmeasures/StructureDefinition/cqfm-logicDefinition","extension":[{"url":"libraryName","valueString":"CMS165FHIRControllingHighBloodPressure"},{"url":"name","valueString":"SDE Race"},{"url":"statement","valueString":"define \"SDE Race\":\n  SDE.\"SDE Race\""},{"url":"displaySequence","valueInteger":32}]},{"url":"http://hl7.org/fhir/us/cqfmeasures/StructureDefinition/cqfm-logicDefinition","extension":[{"url":"libraryName","valueString":"FHIRHelpers"},{"url":"name","valueString":"ToString"},{"url":"statement","valueString":"define function ToString(value uri): value.value"},{"url":"displaySequence","valueInteger":33}]},{"url":"http://hl7.org/fhir/us/cqfmeasures/StructureDefinition/cqfm-logicDefinition","extension":[{"url":"libraryName","valueString":"Status"},{"url":"name","valueString":"isObservationBP"},{"url":"statement","valueString":"//Observation Vital Signs\ndefine fluent function isObservationBP(Obs List<USCoreBloodPressureProfile>):\n  Obs O\n    where O.status in { 'final', 'amended', 'corrected' }"},{"url":"displaySequence","valueInteger":34}]},{"url":"http://hl7.org/fhir/us/cqfmeasures/StructureDefinition/cqfm-logicDefinition","extension":[{"url":"libraryName","valueString":"CMS165FHIRControllingHighBloodPressure"},{"url":"name","valueString":"getEncounter"},{"url":"statement","valueString":"define fluent function getEncounter(reference Reference):\n  singleton from ( [Encounter] E\n      where E.id = reference.reference.getId ( )\n  )"},{"url":"displaySequence","valueInteger":35}]},{"url":"http://hl7.org/fhir/us/cqfmeasures/StructureDefinition/cqfm-logicDefinition","extension":[{"url":"libraryName","valueString":"QICoreCommon"},{"url":"name","valueString":"getId"},{"url":"statement","valueString":"/*\n@description: Returns the tail of the given uri (i.e. everything after the last slash in the URI).\n@comment: This function can be used to determine the logical id of a given resource. It can be used in\na single-server environment to trace references. However, this function does not attempt to resolve\nor distinguish the base of the given url, and so cannot be used safely in multi-server environments.\n*/\ndefine fluent function getId(uri String):\n  Last(Split(uri, '/'))"},{"url":"displaySequence","valueInteger":36}]},{"url":"http://hl7.org/fhir/us/cqfmeasures/StructureDefinition/cqfm-logicDefinition","extension":[{"url":"libraryName","valueString":"Status"},{"url":"name","valueString":"isEncounterPerformed"},{"url":"statement","valueString":"//Encounter, Performed\n//General usage unless required otherwise by measure intent (e.g., follow-up encounters)\ndefine fluent function isEncounterPerformed(Enc List<Encounter>):\n  Enc E\n    where E.status in {'finished', 'arrived', 'triaged', 'in-progress', 'onleave'}"},{"url":"displaySequence","valueInteger":37}]},{"url":"http://hl7.org/fhir/us/cqfmeasures/StructureDefinition/cqfm-logicDefinition","extension":[{"url":"libraryName","valueString":"QICoreCommon"},{"url":"name","valueString":"toInterval"},{"url":"statement","valueString":"/*\n@description: Normalizes a value that is a choice of timing-valued types to an equivalent interval\n@comment: Normalizes a choice type of DateTime, Quanitty, Interval<DateTime>, or Interval<Quantity> types\nto an equivalent interval. This selection of choice types is a superset of the majority of choice types that are used as possible\nrepresentations for timing-valued elements in QICore, allowing this function to be used across any resource.\nThe input can be provided as a DateTime, Quantity, Interval<DateTime> or Interval<Quantity>.\nThe intent of this function is to provide a clear and concise mechanism to treat single\nelements that have multiple possible representations as intervals so that logic doesn't have to account\nfor the variability. More complex calculations (such as medication request period or dispense period\ncalculation) need specific guidance and consideration. That guidance may make use of this function, but\nthe focus of this function is on single element calculations where the semantics are unambiguous.\nIf the input is a DateTime, the result a DateTime Interval beginning and ending on that DateTime.\nIf the input is a Quantity, the quantity is expected to be a calendar-duration interpreted as an Age,\nand the result is a DateTime Interval beginning on the Date the patient turned that age and ending immediately before one year later.\nIf the input is a DateTime Interval, the result is the input.\nIf the input is a Quantity Interval, the quantities are expected to be calendar-durations interpreted as an Age, and the result\nis a DateTime Interval beginning on the date the patient turned the age given as the start of the quantity interval, and ending\nimmediately before one year later than the date the patient turned the age given as the end of the quantity interval.\nIf the input is a Timing, an error will be thrown indicating that Timing calculations are not implemented. Any other input will reslt in a null DateTime Interval\n*/\ndefine fluent function toInterval(choice Choice<DateTime, Quantity, Interval<DateTime>, Interval<Quantity>, Timing>):\n  case\n\t  when choice is DateTime then\n    \tInterval[choice as DateTime, choice as DateTime]\n\t\twhen choice is Interval<DateTime> then\n  \t\tchoice as Interval<DateTime>\n\t\twhen choice is Quantity then\n\t\t  Interval[Patient.birthDate + (choice as Quantity),\n\t\t\t  Patient.birthDate + (choice as Quantity) + 1 year)\n\t\twhen choice is Interval<Quantity> then\n\t\t  Interval[Patient.birthDate + (choice.low as Quantity),\n\t\t\t  Patient.birthDate + (choice.high as Quantity) + 1 year)\n\t\twhen choice is Timing then\n      Message(null, true, 'NOT_IMPLEMENTED', 'Error', 'Calculation of an interval from a Timing value is not supported') as Interval<DateTime>\n\t\telse\n\t\t\tnull as Interval<DateTime>\n\tend"},{"url":"displaySequence","valueInteger":38}]},{"url":"http://hl7.org/fhir/us/cqfmeasures/StructureDefinition/cqfm-logicDefinition","extension":[{"url":"libraryName","valueString":"FHIRHelpers"},{"url":"name","valueString":"ToInterval"},{"url":"statement","valueString":"/*\n@description: Converts the given [Period](https://hl7.org/fhir/datatypes.html#Period)\nvalue to a CQL DateTime Interval\n@comment: If the start value of the given period is unspecified, the starting\nboundary of the resulting interval will be open (meaning the start of the interval\nis unknown, as opposed to interpreted as the beginning of time).\n*/\ndefine function ToInterval(period FHIR.Period):\n    if period is null then\n        null\n    else\n        if period.\"start\" is null then\n            Interval(period.\"start\".value, period.\"end\".value]\n        else\n            Interval[period.\"start\".value, period.\"end\".value]"},{"url":"displaySequence","valueInteger":39}]},{"url":"http://hl7.org/fhir/us/cqfmeasures/StructureDefinition/cqfm-logicDefinition","extension":[{"url":"libraryName","valueString":"FHIRHelpers"},{"url":"name","valueString":"ToCode"},{"url":"statement","valueString":"/*\n@description: Converts the given FHIR [Coding](https://hl7.org/fhir/datatypes.html#Coding) value to a CQL Code.\n*/\ndefine function ToCode(coding FHIR.Coding):\n    if coding is null then\n        null\n    else\n        System.Code {\n          code: coding.code.value,\n          system: coding.system.value,\n          version: coding.version.value,\n          display: coding.display.value\n        }"},{"url":"displaySequence","valueInteger":40}]},{"url":"http://hl7.org/fhir/us/cqfmeasures/StructureDefinition/cqfm-logicDefinition","extension":[{"url":"libraryName","valueString":"Status"},{"url":"name","valueString":"isAssessmentPerformed"},{"url":"statement","valueString":"//This library contains functions used to constrain FHIR resource elements for measures authored by NCQA, based on QICore 6.0.0 resources including IG and authoring patterns. The functions may appear similar to some QICoreCommon functions but differ in that they have constraints that are relevant for measures authored by NCQA.\n\n//Assessment, Performed\ndefine fluent function isAssessmentPerformed(Obs List<ObservationScreeningAssessment>):\n  Obs O\n    where O.status in { 'final', 'amended', 'corrected' }"},{"url":"displaySequence","valueInteger":41}]},{"url":"http://hl7.org/fhir/us/cqfmeasures/StructureDefinition/cqfm-logicDefinition","extension":[{"url":"libraryName","valueString":"Status"},{"url":"name","valueString":"isInterventionOrder"},{"url":"statement","valueString":"//Intervention, Order\ndefine fluent function isInterventionOrder(ServiceRequest List<ServiceRequest>):\n  ServiceRequest S\n    where S.status in { 'active', 'completed' }\n      and S.intent = 'order'"},{"url":"displaySequence","valueInteger":42}]},{"url":"http://hl7.org/fhir/us/cqfmeasures/StructureDefinition/cqfm-logicDefinition","extension":[{"url":"libraryName","valueString":"Status"},{"url":"name","valueString":"isInterventionPerformed"},{"url":"statement","valueString":"//Intervention, Performed\ndefine fluent function isInterventionPerformed(Proc List<Procedure>):\n  Proc P\n    where P.status ~ 'completed'"},{"url":"displaySequence","valueInteger":43}]},{"url":"http://hl7.org/fhir/us/cqfmeasures/StructureDefinition/cqfm-logicDefinition","extension":[{"url":"libraryName","valueString":"Status"},{"url":"name","valueString":"isProcedurePerformed"},{"url":"statement","valueString":"//Procedure, Performed\ndefine fluent function isProcedurePerformed(Proc List<Procedure>):\n  Proc P\n    where P.status ~ 'completed'"},{"url":"displaySequence","valueInteger":44}]},{"url":"http://hl7.org/fhir/us/cqfmeasures/StructureDefinition/cqfm-logicDefinition","extension":[{"url":"libraryName","valueString":"Status"},{"url":"name","valueString":"isDeviceOrder"},{"url":"statement","valueString":"//Device, Order - Personal Use Devices\ndefine fluent function isDeviceOrder(DeviceRequest List<DeviceRequest>):\n  DeviceRequest D\n    where D.status in { 'active', 'completed' }\n      and D.intent = 'order'"},{"url":"displaySequence","valueInteger":45}]},{"url":"http://hl7.org/fhir/us/cqfmeasures/StructureDefinition/cqfm-logicDefinition","extension":[{"url":"libraryName","valueString":"Status"},{"url":"name","valueString":"isSymptom"},{"url":"statement","valueString":"//Symptom\ndefine fluent function isSymptom(Obs List<SimpleObservation>):\n  Obs O\n    where O.status in { 'preliminary', 'final', 'amended', 'corrected' }"},{"url":"displaySequence","valueInteger":46}]},{"url":"http://hl7.org/fhir/us/cqfmeasures/StructureDefinition/cqfm-logicDefinition","extension":[{"url":"libraryName","valueString":"Status"},{"url":"name","valueString":"isMedicationActive"},{"url":"statement","valueString":"//Medication, Active\ndefine fluent function isMedicationActive(MedicationRequest List<MedicationRequest>):\n  MedicationRequest M\n    where M.status = 'active'\n      and M.intent = 'order'"},{"url":"displaySequence","valueInteger":47}]},{"url":"http://hl7.org/fhir/us/cqfmeasures/StructureDefinition/cqfm-logicDefinition","extension":[{"url":"libraryName","valueString":"CumulativeMedicationDuration"},{"url":"name","valueString":"medicationRequestPeriod"},{"url":"statement","valueString":"define fluent function medicationRequestPeriod(Request \"MedicationRequest\"):\n  Request R\n    let\n      dosage: singleton from R.dosageInstruction,\n      doseAndRate: singleton from dosage.doseAndRate,\n      timing: dosage.timing,\n      frequency: Coalesce(timing.repeat.frequencyMax, timing.repeat.frequency),\n      period: Quantity(timing.repeat.period, timing.repeat.periodUnit),\n      doseRange: doseAndRate.dose,\n      doseQuantity: doseAndRate.dose,\n      dose: Coalesce(end of doseRange, doseQuantity),\n      dosesPerDay: Coalesce(ToDaily(frequency, period), Count(timing.repeat.timeOfDay), 1.0),\n      boundsPeriod: timing.repeat.bounds as Interval<DateTime>,\n      daysSupply: (convert R.dispenseRequest.expectedSupplyDuration to days).value,\n      quantity: R.dispenseRequest.quantity,\n      refills: Coalesce(R.dispenseRequest.numberOfRepeatsAllowed, 0),\n      startDate:\n        Coalesce(\n          date from start of boundsPeriod,\n          date from R.authoredOn,\n          date from start of R.dispenseRequest.validityPeriod\n        ),\n      totalDaysSupplied: Coalesce(daysSupply, quantity.value / (dose.value * dosesPerDay)) * (1 + refills)\n    return\n      if startDate is not null and totalDaysSupplied is not null then\n        Interval[startDate, startDate + Quantity(totalDaysSupplied - 1, 'day') ]\n      else if startDate is not null and boundsPeriod.\"high\" is not null then\n        Interval[startDate, date from end of boundsPeriod]\n      else\n        null"},{"url":"displaySequence","valueInteger":48}]},{"url":"http://hl7.org/fhir/us/cqfmeasures/StructureDefinition/cqfm-logicDefinition","extension":[{"url":"libraryName","valueString":"CumulativeMedicationDuration"},{"url":"name","valueString":"Quantity"},{"url":"statement","valueString":"/**********************************************************************/\n/* Functions in this region are copied from opioid-mme-r4             */\n/**********************************************************************/\n\ndefine function Quantity(value Decimal, unit String):\n  if value is not null then\n    System.Quantity { value: value, unit: unit }\n  else\n    null"},{"url":"displaySequence","valueInteger":49}]},{"url":"http://hl7.org/fhir/us/cqfmeasures/StructureDefinition/cqfm-logicDefinition","extension":[{"url":"libraryName","valueString":"CumulativeMedicationDuration"},{"url":"name","valueString":"ToDaily"},{"url":"statement","valueString":"/*\n Goal is to get to number of days\n Two broad approaches to the calculation:\n  1) Based on supply and frequency, calculate the number of expected days the medication will cover/has covered\n  2) Based on relevant period, determine a covered interval and calculate the length of that interval in days\nThis topic covers several use cases and illustrates how to calculate Cumulative\nMedication Duration for each type of medication resource using the supply and\nfrequency approach.\n*/\n\n/*\n  For the first approach, we need to get from frequency to a frequency/day\n  So we define ToDaily\n*/\n\n/*\n  Calculates daily frequency given frequency within a period\n*/\ndefine function ToDaily(frequency System.Integer, period System.Quantity):\n  case period.unit\n    when 'h' then frequency * (24.0 / period.value)\n    when 'min' then frequency * (24.0 / period.value) * 60\n    when 's' then frequency * (24.0 / period.value) * 60 * 60\n    when 'd' then frequency * (24.0 / period.value) / 24\n    when 'wk' then frequency * (24.0 / period.value) / (24 * 7)\n    when 'mo' then frequency * (24.0 / period.value) / (24 * 30) /* assuming 30 days in month */\n    when 'a' then frequency * (24.0 / period.value) / (24 * 365) /* assuming 365 days in year */\n    when 'hour' then frequency * (24.0 / period.value)\n    when 'minute' then frequency * (24.0 / period.value) * 60\n    when 'second' then frequency * (24.0 / period.value) * 60 * 60\n    when 'day' then frequency * (24.0 / period.value) / 24\n    when 'week' then frequency * (24.0 / period.value) / (24 * 7)\n    when 'month' then frequency * (24.0 / period.value) / (24 * 30) /* assuming 30 days in month */\n    when 'year' then frequency * (24.0 / period.value) / (24 * 365) /* assuming 365 days in year */\n    when 'hours' then frequency * (24.0 / period.value)\n    when 'minutes' then frequency * (24.0 / period.value) * 60\n    when 'seconds' then frequency * (24.0 / period.value) * 60 * 60\n    when 'days' then frequency * (24.0 / period.value) / 24\n    when 'weeks' then frequency * (24.0 / period.value) / (24 * 7)\n    when 'months' then frequency * (24.0 / period.value) / (24 * 30) /* assuming 30 days in month */\n    when 'years' then frequency * (24.0 / period.value) / (24 * 365) /* assuming 365 days in year */\n    else Message(null, true, 'CMDLogic.ToDaily.UnknownUnit', ErrorLevel, 'Unknown unit ' & period.unit)\n  end"},{"url":"displaySequence","valueInteger":50}]}],"name":"EffectiveDataRequirements","status":"active","type":{"coding":[{"system":"http://terminology.hl7.org/CodeSystem/library-type","code":"module-definition"}]},"relatedArtifact":[{"type":"depends-on","display":"Library SDE","resource":"Library/SupplementalDataElements|5.1.000"},{"type":"depends-on","display":"Library FHIRHelpers","resource":"Library/FHIRHelpers|4.4.000"},{"type":"depends-on","display":"Library Status","resource":"Library/Status|1.13.000"},{"type":"depends-on","display":"Library FHIRHelpers","resource":"Library/FHIRHelpers|4.4.000"},{"type":"depends-on","display":"Library QICoreCommon","resource":"Library/QICoreCommon|4.0.000"},{"type":"depends-on","display":"Library AdultOutpatientEncounters","resource":"Library/AdultOutpatientEncounters|4.16.000"},{"type":"depends-on","display":"Library Status","resource":"Library/Status|1.13.000"},{"type":"depends-on","display":"Library QICoreCommon","resource":"Library/QICoreCommon|4.0.000"},{"type":"depends-on","display":"Library FHIRHelpers","resource":"Library/FHIRHelpers|4.4.000"},{"type":"depends-on","display":"Library Hospice","resource":"Library/Hospice|6.15.000"},{"type":"depends-on","display":"Library Status","resource":"Library/Status|1.13.000"},{"type":"depends-on","display":"Library FHIRHelpers","resource":"Library/FHIRHelpers|4.4.000"},{"type":"depends-on","display":"Library QICoreCommon","resource":"Library/QICoreCommon|4.0.000"},{"type":"depends-on","display":"Library AIFrailLTCF","resource":"Library/AdvancedIllnessandFrailty|1.23.000"},{"type":"depends-on","display":"Library Status","resource":"Library/Status|1.13.000"},{"type":"depends-on","display":"Library QICoreCommon","resource":"Library/QICoreCommon|4.0.000"},{"type":"depends-on","display":"Library FHIRHelpers","resource":"Library/FHIRHelpers|4.4.000"},{"type":"depends-on","display":"Library CMD","resource":"Library/CumulativeMedicationDuration|6.0.000"},{"type":"depends-on","display":"Library FHIRHelpers","resource":"Library/FHIRHelpers|4.4.000"},{"type":"depends-on","display":"Library PalliativeCare","resource":"Library/PalliativeCare|1.15.000"},{"type":"depends-on","display":"Library Status","resource":"Library/Status|1.13.000"},{"type":"depends-on","display":"Library QICoreCommon","resource":"Library/QICoreCommon|4.0.000"},{"type":"depends-on","display":"Library FHIRHelpers","resource":"Library/FHIRHelpers|4.4.000"},{"type":"depends-on","display":"Code system SNOMEDCT","resource":"http://snomed.info/sct"},{"type":"depends-on","display":"Code system LOINC","resource":"http://loinc.org"},{"type":"depends-on","display":"Code system SNOMEDCT","resource":"http://snomed.info/sct"},{"type":"depends-on","display":"Code system LOINC","resource":"http://loinc.org"},{"type":"depends-on","display":"Code system LOINC","resource":"http://loinc.org"},{"type":"depends-on","display":"Code system SNOMEDCT","resource":"http://snomed.info/sct"},{"type":"depends-on","display":"Code system LOINC","resource":"http://loinc.org"},{"type":"depends-on","display":"Value set Essential Hypertension","resource":"http://cts.nlm.nih.gov/fhir/ValueSet/2.16.840.1.113883.3.464.1003.104.12.1011"},{"type":"depends-on","display":"Value set Office Visit","resource":"http://cts.nlm.nih.gov/fhir/ValueSet/2.16.840.1.113883.3.464.1003.101.12.1001"},{"type":"depends-on","display":"Value set Annual Wellness Visit","resource":"http://cts.nlm.nih.gov/fhir/ValueSet/2.16.840.1.113883.3.526.3.1240"},{"type":"depends-on","display":"Value set Preventive Care Services Established Office Visit, 18 and Up","resource":"http://cts.nlm.nih.gov/fhir/ValueSet/2.16.840.1.113883.3.464.1003.101.12.1025"},{"type":"depends-on","display":"Value set Preventive Care Services Initial Office Visit, 18 and Up","resource":"http://cts.nlm.nih.gov/fhir/ValueSet/2.16.840.1.113883.3.464.1003.101.12.1023"},{"type":"depends-on","display":"Value set Home Healthcare Services","resource":"http://cts.nlm.nih.gov/fhir/ValueSet/2.16.840.1.113883.3.464.1003.101.12.1016"},{"type":"depends-on","display":"Value set Virtual Encounter","resource":"http://cts.nlm.nih.gov/fhir/ValueSet/2.16.840.1.113883.3.464.1003.101.12.1089"},{"type":"depends-on","display":"Value set Telephone Visits","resource":"http://cts.nlm.nih.gov/fhir/ValueSet/2.16.840.1.113883.3.464.1003.101.12.1080"},{"type":"depends-on","display":"Value set Payer Type","resource":"http://cts.nlm.nih.gov/fhir/ValueSet/2.16.840.1.114222.4.11.3591"},{"type":"depends-on","display":"Value set Encounter Inpatient","resource":"http://cts.nlm.nih.gov/fhir/ValueSet/2.16.840.1.113883.3.666.5.307"},{"type":"depends-on","display":"Value set Hospice Encounter","resource":"http://cts.nlm.nih.gov/fhir/ValueSet/2.16.840.1.113883.3.464.1003.1003"},{"type":"depends-on","display":"Value set Hospice Care Ambulatory","resource":"http://cts.nlm.nih.gov/fhir/ValueSet/2.16.840.1.113883.3.526.3.1584"},{"type":"depends-on","display":"Value set Hospice Diagnosis","resource":"http://cts.nlm.nih.gov/fhir/ValueSet/2.16.840.1.113883.3.464.1003.1165"},{"type":"depends-on","display":"Value set Pregnancy","resource":"http://cts.nlm.nih.gov/fhir/ValueSet/2.16.840.1.113883.3.526.3.378"},{"type":"depends-on","display":"Value set End Stage Renal Disease","resource":"http://cts.nlm.nih.gov/fhir/ValueSet/2.16.840.1.113883.3.526.3.353"},{"type":"depends-on","display":"Value set Kidney Transplant Recipient","resource":"http://cts.nlm.nih.gov/fhir/ValueSet/2.16.840.1.113883.3.464.1003.109.12.1029"},{"type":"depends-on","display":"Value set Chronic Kidney Disease, Stage 5","resource":"http://cts.nlm.nih.gov/fhir/ValueSet/2.16.840.1.113883.3.526.3.1002"},{"type":"depends-on","display":"Value set Kidney Transplant","resource":"http://cts.nlm.nih.gov/fhir/ValueSet/2.16.840.1.113883.3.464.1003.109.12.1012"},{"type":"depends-on","display":"Value set Dialysis Services","resource":"http://cts.nlm.nih.gov/fhir/ValueSet/2.16.840.1.113883.3.464.1003.109.12.1013"},{"type":"depends-on","display":"Value set ESRD Monthly Outpatient Services","resource":"http://cts.nlm.nih.gov/fhir/ValueSet/2.16.840.1.113883.3.464.1003.109.12.1014"},{"type":"depends-on","display":"Value set Frailty Device","resource":"http://cts.nlm.nih.gov/fhir/ValueSet/2.16.840.1.113883.3.464.1003.118.12.1300"},{"type":"depends-on","display":"Value set Frailty Diagnosis","resource":"http://cts.nlm.nih.gov/fhir/ValueSet/2.16.840.1.113883.3.464.1003.113.12.1074"},{"type":"depends-on","display":"Value set Frailty Encounter","resource":"http://cts.nlm.nih.gov/fhir/ValueSet/2.16.840.1.113883.3.464.1003.101.12.1088"},{"type":"depends-on","display":"Value set Frailty Symptom","resource":"http://cts.nlm.nih.gov/fhir/ValueSet/2.16.840.1.113883.3.464.1003.113.12.1075"},{"type":"depends-on","display":"Value set Advanced Illness","resource":"http://cts.nlm.nih.gov/fhir/ValueSet/2.16.840.1.113883.3.464.1003.110.12.1082"},{"type":"depends-on","display":"Value set Dementia Medications","resource":"http://cts.nlm.nih.gov/fhir/ValueSet/2.16.840.1.113883.3.464.1003.196.12.1510"},{"type":"depends-on","display":"Value set Palliative Care Diagnosis","resource":"http://cts.nlm.nih.gov/fhir/ValueSet/2.16.840.1.113883.3.464.1003.1167"},{"type":"depends-on","display":"Value set Palliative Care Encounter","resource":"http://cts.nlm.nih.gov/fhir/ValueSet/2.16.840.1.113883.3.464.1003.101.12.1090"},{"type":"depends-on","display":"Value set Palliative Care Intervention","resource":"http://cts.nlm.nih.gov/fhir/ValueSet/2.16.840.1.113883.3.464.1003.198.12.1135"}],"parameter":[{"name":"Measurement Period","use":"in","min":0,"max":"1","type":"Period"},{"name":"ErrorLevel","use":"in","min":0,"max":"1","type":"string"},{"name":"SDE Sex","use":"out","min":0,"max":"1","type":"Coding"},{"name":"Numerator","use":"out","min":0,"max":"1","type":"boolean"},{"name":"Denominator","use":"out","min":0,"max":"1","type":"boolean"},{"name":"SDE Payer","use":"out","min":0,"max":"*","type":"Resource"},{"name":"Initial Population","use":"out","min":0,"max":"1","type":"boolean"},{"name":"SDE Ethnicity","use":"out","min":0,"max":"1","type":"Resource"},{"name":"Denominator Exclusions","use":"out","min":0,"max":"1","type":"boolean"},{"name":"SDE Race","use":"out","min":0,"max":"1","type":"Resource"}],"dataRequirement":[{"type":"Patient","profile":["http://hl7.org/fhir/us/qicore/StructureDefinition/qicore-patient"]},{"type":"Patient","profile":["http://hl7.org/fhir/us/qicore/StructureDefinition/qicore-patient"],"mustSupport":["url","value.value"]},{"type":"Patient","profile":["http://hl7.org/fhir/us/qicore/StructureDefinition/qicore-patient"],"mustSupport":["url","value.value"]},{"type":"Encounter","profile":["http://hl7.org/fhir/us/qicore/StructureDefinition/qicore-encounter"],"mustSupport":["id","id.value"]},{"type":"Observation","profile":["http://hl7.org/fhir/us/core/StructureDefinition/us-core-blood-pressure"],"mustSupport":["encounter","encounter.class","encounter.class.code","effective"]},{"type":"Observation","profile":["http://hl7.org/fhir/us/core/StructureDefinition/us-core-blood-pressure"],"mustSupport":["encounter","encounter.class","encounter.class.code","effective"]},{"type":"Observation","profile":["http://hl7.org/fhir/us/core/StructureDefinition/us-core-blood-pressure"],"mustSupport":["encounter","encounter.class","encounter.class.code","effective"]},{"type":"Observation","profile":["http://hl7.org/fhir/us/core/StructureDefinition/us-core-blood-pressure"],"mustSupport":["encounter","encounter.class","encounter.class.code","effective"]},{"type":"Observation","profile":["http://hl7.org/fhir/us/core/StructureDefinition/us-core-blood-pressure"],"mustSupport":["encounter","encounter.class","encounter.class.code","effective","component"]},{"type":"Observation","profile":["http://hl7.org/fhir/us/core/StructureDefinition/us-core-blood-pressure"],"mustSupport":["encounter","encounter.class","encounter.class.code","effective","component"]},{"type":"Patient","profile":["http://hl7.org/fhir/us/qicore/StructureDefinition/qicore-patient"]},{"type":"Condition","profile":["http://hl7.org/fhir/us/qicore/StructureDefinition/qicore-condition-problems-health-concerns"],"mustSupport":["code"],"codeFilter":[{"path":"code","valueSet":"http://cts.nlm.nih.gov/fhir/ValueSet/2.16.840.1.113883.3.464.1003.104.12.1011"}]},{"type":"Condition","profile":["http://hl7.org/fhir/us/qicore/StructureDefinition/qicore-condition-encounter-diagnosis"],"mustSupport":["code"],"codeFilter":[{"path":"code","valueSet":"http://cts.nlm.nih.gov/fhir/ValueSet/2.16.840.1.113883.3.464.1003.104.12.1011"}]},{"type":"Patient","profile":["http://hl7.org/fhir/us/qicore/StructureDefinition/qicore-patient"]},{"type":"Encounter","profile":["http://hl7.org/fhir/us/qicore/StructureDefinition/qicore-encounter"],"mustSupport":["type"],"codeFilter":[{"path":"type","valueSet":"http://cts.nlm.nih.gov/fhir/ValueSet/2.16.840.1.113883.3.464.1003.101.12.1001"}]},{"type":"Encounter","profile":["http://hl7.org/fhir/us/qicore/StructureDefinition/qicore-encounter"],"mustSupport":["type"],"codeFilter":[{"path":"type","valueSet":"http://cts.nlm.nih.gov/fhir/ValueSet/2.16.840.1.113883.3.526.3.1240"}]},{"type":"Encounter","profile":["http://hl7.org/fhir/us/qicore/StructureDefinition/qicore-encounter"],"mustSupport":["type"],"codeFilter":[{"path":"type","valueSet":"http://cts.nlm.nih.gov/fhir/ValueSet/2.16.840.1.113883.3.464.1003.101.12.1025"}]},{"type":"Encounter","profile":["http://hl7.org/fhir/us/qicore/StructureDefinition/qicore-encounter"],"mustSupport":["type"],"codeFilter":[{"path":"type","valueSet":"http://cts.nlm.nih.gov/fhir/ValueSet/2.16.840.1.113883.3.464.1003.101.12.1023"}]},{"type":"Encounter","profile":["http://hl7.org/fhir/us/qicore/StructureDefinition/qicore-encounter"],"mustSupport":["type"],"codeFilter":[{"path":"type","valueSet":"http://cts.nlm.nih.gov/fhir/ValueSet/2.16.840.1.113883.3.464.1003.101.12.1016"}]},{"type":"Encounter","profile":["http://hl7.org/fhir/us/qicore/StructureDefinition/qicore-encounter"],"mustSupport":["type"],"codeFilter":[{"path":"type","valueSet":"http://cts.nlm.nih.gov/fhir/ValueSet/2.16.840.1.113883.3.464.1003.101.12.1089"}]},{"type":"Encounter","profile":["http://hl7.org/fhir/us/qicore/StructureDefinition/qicore-encounter"],"mustSupport":["type"],"codeFilter":[{"path":"type","valueSet":"http://cts.nlm.nih.gov/fhir/ValueSet/2.16.840.1.113883.3.464.1003.101.12.1080"}]},{"type":"Coverage","profile":["http://hl7.org/fhir/us/qicore/StructureDefinition/qicore-coverage"],"mustSupport":["type","period"],"codeFilter":[{"path":"type","valueSet":"http://cts.nlm.nih.gov/fhir/ValueSet/2.16.840.1.114222.4.11.3591"}]},{"type":"Patient","profile":["http://hl7.org/fhir/us/qicore/StructureDefinition/qicore-patient"],"mustSupport":["url"]},{"type":"Patient","profile":["http://hl7.org/fhir/us/qicore/StructureDefinition/qicore-patient"],"mustSupport":["url","extension"]},{"type":"Encounter","profile":["http://hl7.org/fhir/us/qicore/StructureDefinition/qicore-encounter"],"mustSupport":["type","hospitalization","hospitalization.dischargeDisposition","period"],"codeFilter":[{"path":"type","valueSet":"http://cts.nlm.nih.gov/fhir/ValueSet/2.16.840.1.113883.3.666.5.307"}]},{"type":"Encounter","profile":["http://hl7.org/fhir/us/qicore/StructureDefinition/qicore-encounter"],"mustSupport":["type","period"],"codeFilter":[{"path":"type","valueSet":"http://cts.nlm.nih.gov/fhir/ValueSet/2.16.840.1.113883.3.464.1003.1003"}]},{"type":"Observation","profile":["http://hl7.org/fhir/us/qicore/StructureDefinition/qicore-observation-screening-assessment"],"mustSupport":["code","value","effective"],"codeFilter":[{"path":"code","code":[{"system":"http://loinc.org","code":"45755-6","display":"Hospice care [Minimum Data Set]"}]}]},{"type":"ServiceRequest","profile":["http://hl7.org/fhir/us/qicore/StructureDefinition/qicore-servicerequest"],"mustSupport":["code","authoredOn","authoredOn.value"],"codeFilter":[{"path":"code","valueSet":"http://cts.nlm.nih.gov/fhir/ValueSet/2.16.840.1.113883.3.526.3.1584"}]},{"type":"Procedure","profile":["http://hl7.org/fhir/us/qicore/StructureDefinition/qicore-procedure"],"mustSupport":["code","performed"],"codeFilter":[{"path":"code","valueSet":"http://cts.nlm.nih.gov/fhir/ValueSet/2.16.840.1.113883.3.526.3.1584"}]},{"type":"Condition","profile":["http://hl7.org/fhir/us/qicore/StructureDefinition/qicore-condition-problems-health-concerns"],"mustSupport":["code"],"codeFilter":[{"path":"code","valueSet":"http://cts.nlm.nih.gov/fhir/ValueSet/2.16.840.1.113883.3.464.1003.1165"}]},{"type":"Condition","profile":["http://hl7.org/fhir/us/qicore/StructureDefinition/qicore-condition-encounter-diagnosis"],"mustSupport":["code"],"codeFilter":[{"path":"code","valueSet":"http://cts.nlm.nih.gov/fhir/ValueSet/2.16.840.1.113883.3.464.1003.1165"}]},{"type":"Condition","profile":["http://hl7.org/fhir/us/qicore/StructureDefinition/qicore-condition-problems-health-concerns"],"mustSupport":["code"],"codeFilter":[{"path":"code","valueSet":"http://cts.nlm.nih.gov/fhir/ValueSet/2.16.840.1.113883.3.526.3.378"}]},{"type":"Condition","profile":["http://hl7.org/fhir/us/qicore/StructureDefinition/qicore-condition-encounter-diagnosis"],"mustSupport":["code"],"codeFilter":[{"path":"code","valueSet":"http://cts.nlm.nih.gov/fhir/ValueSet/2.16.840.1.113883.3.526.3.378"}]},{"type":"Condition","profile":["http://hl7.org/fhir/us/qicore/StructureDefinition/qicore-condition-problems-health-concerns"],"mustSupport":["code"],"codeFilter":[{"path":"code","valueSet":"http://cts.nlm.nih.gov/fhir/ValueSet/2.16.840.1.113883.3.526.3.353"}]},{"type":"Condition","profile":["http://hl7.org/fhir/us/qicore/StructureDefinition/qicore-condition-encounter-diagnosis"],"mustSupport":["code"],"codeFilter":[{"path":"code","valueSet":"http://cts.nlm.nih.gov/fhir/ValueSet/2.16.840.1.113883.3.526.3.353"}]},{"type":"Condition","profile":["http://hl7.org/fhir/us/qicore/StructureDefinition/qicore-condition-problems-health-concerns"],"mustSupport":["code"],"codeFilter":[{"path":"code","valueSet":"http://cts.nlm.nih.gov/fhir/ValueSet/2.16.840.1.113883.3.464.1003.109.12.1029"}]},{"type":"Condition","profile":["http://hl7.org/fhir/us/qicore/StructureDefinition/qicore-condition-encounter-diagnosis"],"mustSupport":["code"],"codeFilter":[{"path":"code","valueSet":"http://cts.nlm.nih.gov/fhir/ValueSet/2.16.840.1.113883.3.464.1003.109.12.1029"}]},{"type":"Condition","profile":["http://hl7.org/fhir/us/qicore/StructureDefinition/qicore-condition-problems-health-concerns"],"mustSupport":["code"],"codeFilter":[{"path":"code","valueSet":"http://cts.nlm.nih.gov/fhir/ValueSet/2.16.840.1.113883.3.526.3.1002"}]},{"type":"Condition","profile":["http://hl7.org/fhir/us/qicore/StructureDefinition/qicore-condition-encounter-diagnosis"],"mustSupport":["code"],"codeFilter":[{"path":"code","valueSet":"http://cts.nlm.nih.gov/fhir/ValueSet/2.16.840.1.113883.3.526.3.1002"}]},{"type":"Procedure","profile":["http://hl7.org/fhir/us/qicore/StructureDefinition/qicore-procedure"],"mustSupport":["code"],"codeFilter":[{"path":"code","valueSet":"http://cts.nlm.nih.gov/fhir/ValueSet/2.16.840.1.113883.3.464.1003.109.12.1012"}]},{"type":"Procedure","profile":["http://hl7.org/fhir/us/qicore/StructureDefinition/qicore-procedure"],"mustSupport":["code"],"codeFilter":[{"path":"code","valueSet":"http://cts.nlm.nih.gov/fhir/ValueSet/2.16.840.1.113883.3.464.1003.109.12.1013"}]},{"type":"Encounter","profile":["http://hl7.org/fhir/us/qicore/StructureDefinition/qicore-encounter"],"mustSupport":["type","period"],"codeFilter":[{"path":"type","valueSet":"http://cts.nlm.nih.gov/fhir/ValueSet/2.16.840.1.113883.3.464.1003.109.12.1014"}]},{"type":"Patient","profile":["http://hl7.org/fhir/us/qicore/StructureDefinition/qicore-patient"]},{"type":"DeviceRequest","profile":["http://hl7.org/fhir/us/qicore/StructureDefinition/qicore-devicerequest"],"mustSupport":["code"],"codeFilter":[{"path":"code","valueSet":"http://cts.nlm.nih.gov/fhir/ValueSet/2.16.840.1.113883.3.464.1003.118.12.1300"}]},{"type":"DeviceRequest","profile":["http://hl7.org/fhir/us/qicore/StructureDefinition/qicore-devicerequest"],"mustSupport":["code"],"codeFilter":[{"path":"code","valueSet":"http://cts.nlm.nih.gov/fhir/ValueSet/2.16.840.1.113883.3.464.1003.118.12.1300"}]},{"type":"Observation","profile":["http://hl7.org/fhir/us/qicore/StructureDefinition/qicore-observation-screening-assessment"],"mustSupport":["code","value","effective"],"codeFilter":[{"path":"code","code":[{"system":"http://loinc.org","code":"98181-1","display":"Medical equipment used"}]}]},{"type":"Condition","profile":["http://hl7.org/fhir/us/qicore/StructureDefinition/qicore-condition-problems-health-concerns"],"mustSupport":["code"],"codeFilter":[{"path":"code","valueSet":"http://cts.nlm.nih.gov/fhir/ValueSet/2.16.840.1.113883.3.464.1003.113.12.1074"}]},{"type":"Condition","profile":["http://hl7.org/fhir/us/qicore/StructureDefinition/qicore-condition-encounter-diagnosis"],"mustSupport":["code"],"codeFilter":[{"path":"code","valueSet":"http://cts.nlm.nih.gov/fhir/ValueSet/2.16.840.1.113883.3.464.1003.113.12.1074"}]},{"type":"Encounter","profile":["http://hl7.org/fhir/us/qicore/StructureDefinition/qicore-encounter"],"mustSupport":["type","period"],"codeFilter":[{"path":"type","valueSet":"http://cts.nlm.nih.gov/fhir/ValueSet/2.16.840.1.113883.3.464.1003.101.12.1088"}]},{"type":"Observation","profile":["http://hl7.org/fhir/us/qicore/StructureDefinition/qicore-simple-observation"],"mustSupport":["code","effective"],"codeFilter":[{"path":"code","valueSet":"http://cts.nlm.nih.gov/fhir/ValueSet/2.16.840.1.113883.3.464.1003.113.12.1075"}]},{"type":"Condition","profile":["http://hl7.org/fhir/us/qicore/StructureDefinition/qicore-condition-problems-health-concerns"],"mustSupport":["code"],"codeFilter":[{"path":"code","valueSet":"http://cts.nlm.nih.gov/fhir/ValueSet/2.16.840.1.113883.3.464.1003.110.12.1082"}]},{"type":"Condition","profile":["http://hl7.org/fhir/us/qicore/StructureDefinition/qicore-condition-encounter-diagnosis"],"mustSupport":["code"],"codeFilter":[{"path":"code","valueSet":"http://cts.nlm.nih.gov/fhir/ValueSet/2.16.840.1.113883.3.464.1003.110.12.1082"}]},{"type":"MedicationRequest","profile":["http://hl7.org/fhir/us/qicore/StructureDefinition/qicore-medicationrequest"],"mustSupport":["medication"],"codeFilter":[{"path":"medication","valueSet":"http://cts.nlm.nih.gov/fhir/ValueSet/2.16.840.1.113883.3.464.1003.196.12.1510"}]},{"type":"Observation","profile":["http://hl7.org/fhir/us/qicore/StructureDefinition/qicore-observation-screening-assessment"],"mustSupport":["code","effective"],"codeFilter":[{"path":"code","code":[{"system":"http://loinc.org","code":"71802-3","display":"Housing status"}]}]},{"type":"Observation","profile":["http://hl7.org/fhir/us/qicore/StructureDefinition/qicore-observation-screening-assessment"],"mustSupport":["code","effective","value"],"codeFilter":[{"path":"code","code":[{"system":"http://loinc.org","code":"71802-3","display":"Housing status"}]}]},{"type":"Observation","profile":["http://hl7.org/fhir/us/qicore/StructureDefinition/qicore-observation-screening-assessment"],"mustSupport":["code","effective"],"codeFilter":[{"path":"code","code":[{"system":"http://loinc.org","code":"71007-9","display":"Functional Assessment of Chronic Illness Therapy - Palliative Care Questionnaire (FACIT-Pal)"}]}]},{"type":"Condition","profile":["http://hl7.org/fhir/us/qicore/StructureDefinition/qicore-condition-problems-health-concerns"],"mustSupport":["code"],"codeFilter":[{"path":"code","valueSet":"http://cts.nlm.nih.gov/fhir/ValueSet/2.16.840.1.113883.3.464.1003.1167"}]},{"type":"Condition","profile":["http://hl7.org/fhir/us/qicore/StructureDefinition/qicore-condition-encounter-diagnosis"],"mustSupport":["code"],"codeFilter":[{"path":"code","valueSet":"http://cts.nlm.nih.gov/fhir/ValueSet/2.16.840.1.113883.3.464.1003.1167"}]},{"type":"Encounter","profile":["http://hl7.org/fhir/us/qicore/StructureDefinition/qicore-encounter"],"mustSupport":["type","period"],"codeFilter":[{"path":"type","valueSet":"http://cts.nlm.nih.gov/fhir/ValueSet/2.16.840.1.113883.3.464.1003.101.12.1090"}]},{"type":"Procedure","profile":["http://hl7.org/fhir/us/qicore/StructureDefinition/qicore-procedure"],"mustSupport":["code","performed"],"codeFilter":[{"path":"code","valueSet":"http://cts.nlm.nih.gov/fhir/ValueSet/2.16.840.1.113883.3.464.1003.198.12.1135"}]},{"type":"Patient","profile":["http://hl7.org/fhir/us/qicore/StructureDefinition/qicore-patient"],"mustSupport":["url"]},{"type":"Patient","profile":["http://hl7.org/fhir/us/qicore/StructureDefinition/qicore-patient"],"mustSupport":["url","extension"]},{"type":"Coverage","profile":["http://hl7.org/fhir/us/qicore/StructureDefinition/qicore-coverage"],"mustSupport":["type","period"],"codeFilter":[{"path":"type","valueSet":"http://cts.nlm.nih.gov/fhir/ValueSet/2.16.840.1.114222.4.11.3591"}]},{"type":"Patient","profile":["http://hl7.org/fhir/us/qicore/StructureDefinition/qicore-patient"],"mustSupport":["url","extension"]},{"type":"Patient","profile":["http://hl7.org/fhir/us/qicore/StructureDefinition/qicore-patient"],"mustSupport":["url","extension"]}]}],"extension":[{"id":"supplementalDataGuidance","url":"http://hl7.org/fhir/us/cqfmeasures/StructureDefinition/cqfm-supplementalDataGuidance","extension":[{"url":"guidance","valueString":"For every patient evaluated by this measure also identify payer, race, ethnicity and sex\n "},{"url":"usage","valueCodeableConcept":{"coding":[{"system":"http://terminology.hl7.org/CodeSystem/measure-data-usage","code":"supplemental-data","display":"Supplemental Data"}],"text":"Supplemental Data Guidance"}}]},{"url":"http://hl7.org/fhir/uv/crmi/StructureDefinition/crmi-effectiveDataRequirements","valueCanonical":"#effective-data-requirements"},{"id":"effective-data-requirements","url":"http://hl7.org/fhir/us/cqfmeasures/StructureDefinition/cqfm-effectiveDataRequirements","valueReference":{"reference":"#effective-data-requirements"}},{"url":"http://hl7.org/fhir/uv/crmi/StructureDefinition/crmi-softwaresystem","valueReference":{"reference":"Device/cqf-tooling"}}],"url":"https://madie.cms.gov/Measure/CMS165FHIRControllingHighBloodPressure","identifier":[{"use":"usual","type":{"coding":[{"system":"http://terminology.hl7.org/CodeSystem/artifact-identifier-type","code":"short-name","display":"Short Name"}]},"system":"https://madie.cms.gov/measure/shortName","value":"CMS165FHIR"},{"use":"official","type":{"coding":[{"system":"http://terminology.hl7.org/CodeSystem/artifact-identifier-type","code":"version-independent","display":"Version Independent"}]},"system":"urn:ietf:rfc:3986","value":"urn:uuid:9017d914-6748-45a9-bff1-8392ed644a7b"},{"use":"official","type":{"coding":[{"system":"http://terminology.hl7.org/CodeSystem/artifact-identifier-type","code":"version-specific","display":"Version Specific"}]},"system":"urn:ietf:rfc:3986","value":"urn:uuid:f4752523-432f-4641-bdb9-309171864730"},{"use":"official","type":{"coding":[{"system":"http://terminology.hl7.org/CodeSystem/artifact-identifier-type","code":"publisher","display":"Publisher"}]},"system":"https://madie.cms.gov/measure/cmsId","value":"165FHIR","assigner":{"display":"CMS"}}],"version":"0.3.000","name":"CMS165FHIRControllingHighBloodPressure","title":"Controlling High Blood PressureFHIR","status":"active","experimental":false,"date":"2025-06-26T19:30:09+00:00","publisher":"National Committee for Quality Assurance","contact":[{"telecom":[{"system":"url","value":"https://www.ncqa.org/"}]}],"description":"Percentage of patients 18-85 years of age who had a diagnosis of essential hypertension starting before and continuing into, or starting during the first six months of the measurement period, and whose most recent blood pressure was adequately controlled (<140/90 mmHg) during the measurement period","usage":"In reference to the numerator element, only blood pressure readings performed by a clinician or an automated blood pressure monitor or device are acceptable for numerator compliance with this measure. This includes blood pressures taken in person by a clinician and blood pressures measured remotely by electronic monitoring devices capable of transmitting the blood pressure data to the clinician. Blood pressure readings taken by an automated blood pressure monitor or device and conveyed by the patient to the clinician are also acceptable. It is the clinician’s responsibility and discretion to confirm the automated blood pressure monitor or device used to obtain the blood pressure is considered acceptable and reliable and whether the blood pressure reading is considered accurate before documenting it in the patient’s medical record.\n\nDo not include BP readings taken during an acute inpatient stay or an emergency department (ED) visit.\n\nIf no blood pressure is recorded during the measurement period, the patient's blood pressure is assumed \"not controlled\".\n\nIf there are multiple blood pressure readings on the same day, use the lowest systolic and the lowest diastolic reading as the most recent blood pressure reading. Ranges and thresholds do not meet criteria for this measure. A distinct numeric result for both the systolic and diastolic BP reading is required for numerator compliance.\n\nThis eCQM is a patient-based measure.\n\nThis FHIR-based measure has been derived from the QDM-based measure: CMS165v13.\n\nPlease refer to the HL7 QI-Core Implementation Guide (http://hl7.org/fhir/us/qicore/STU4.1.1/) for more information on QI-Core and mapping recommendations from QDM to QI-Core 4.1.1 (http://hl7.org/fhir/us/qicore/STU4.1.1/qdm-to-qicore.html).","copyright":"This Physician Performance Measure (Measure) and related data specifications are owned and were developed by the National Committee for Quality Assurance (NCQA). NCQA is not responsible for any use of the Measure. NCQA makes no representations, warranties or endorsements about the quality of any product, test or protocol identified as numerator compliant or otherwise identified as meeting the requirements of the measure or specification. NCQA makes no representations, warranties, or endorsement about the quality of any organization or physician that uses or reports performance measures and NCQA has no liability to anyone who relies on such measures or specifications. NCQA holds a copyright in the Measure. The Measure may be used for internal, noncommercial purposes (e.g., use by healthcare providers in connection with their practices) without obtaining approval from NCQA. All other uses, including a commercial use (including but not limited to vendors using or embedding the measures and specifications into any product or service to calculate measure results for customers for any purpose), must be approved by NCQA and are subject to a license at the discretion of NCQA.  (C) 2012-2025 National Committee for Quality Assurance. All Rights Reserved.\n\nLimited proprietary coding is contained in the Measure specifications for user convenience. Users of proprietary code sets should obtain all necessary licenses from the owners of the code sets. NCQA disclaims all liability for use or accuracy of any third-party codes contained in the specifications.\n\nCPT(R) codes, descriptions and other data are copyright 2025. American Medical Association. All rights reserved. CPT is a trademark of the American Medical Association. Fee schedules, relative value units, conversion factors and/or related components are not assigned by the AMA, are not part of CPT, and the AMA is not recommending their use. The AMA does not directly or indirectly practice medicine or dispense medical services. The AMA assumes no liability for data contained or not contained herein. Applicable FARS/DFARS restrictions apply to government use.\n\nSome measure specifications contain coding from LOINC(R) (https://loinc.org). The LOINC table, LOINC codes, LOINC panels and form file, LOINC linguistic variants file, LOINC/RSNA Radiology Playbook, and LOINC/IEEE Medical Device Code Mapping Table are copyright 2004-2025 Regenstrief Institute, Inc. and the Logical Observation Identifiers Names and Codes (LOINC) Committee, and are available at no cost under the license at https://loinc.org/kb/license/.\n\nThis material contains SNOMED Clinical Terms(R) (SNOMED CT[R]) copyright 2004-2024 International Health Terminology Standards Development Organisation. \n\nICD-10 copyright 2025 World Health Organization. All Rights Reserved.\n\nSome measures use RxNorm, a standardized nomenclature and coding for clinical drugs and drug delivery devices, which is made publicly available courtesy of the U.S. National Library of Medicine (NLM), National Institutes of Health, Department of Health and Human Services. NLM is not responsible for the measures and does not endorse or recommend this or any other product.\n\n“HL7” is the registered trademark of Health Level Seven International.","effectivePeriod":{"start":"2026-01-01","end":"2026-12-31"},"author":[{"name":"National Committee for Quality Assurance","telecom":[{"system":"url","value":"https://www.ncqa.org/"}]}],"library":["https://madie.cms.gov/Library/CMS165FHIRControllingHighBloodPressure"],"disclaimer":"The performance Measure is not a clinical guideline and does not establish a standard of medical care, and has not been tested for all potential applications. THE MEASURE AND SPECIFICATIONS ARE PROVIDED \"AS IS\" WITHOUT WARRANTY OF ANY KIND. \n\nDue to technical limitations, registered trademarks are indicated by (R) or [R] and unregistered trademarks are indicated by (TM) or [TM].","rationale":"High blood pressure (HBP), also known as hypertension, is when the pressure in blood vessels is higher than normal (Centers for Disease Control and Prevention [CDC], 2023). The causes of hypertension are multiple and multifaceted and can be based on genetic predisposition, environmental risk factors, being overweight and obese, sodium intake, potassium intake, physical activity, and alcohol use. High blood pressure is common; according to the American Heart Association, between 2013-2016, approximately 121.5 million US adults >= 20 years of age had HBP and the prevalence of hypertension among US adults 65 and older was 77.0 percent (Virani et al., 2021). In an analysis of adults with hypertension in National Health and Nutrition Examination Survey (NHANES), the estimated age-adjusted proportion with controlled blood pressure (BP) increased from 31.8 percent in 1999 to 53.8 percent in 2014. However, that proportion declined to 43.7 percent in 2017 to 2018 (Tsao et al., 2022).\n\nHBP increases risks of heart disease and stroke which are two of the leading causes of death in the US (CDC, 2023). A person who has HBP is four times more likely to die from a stroke and three times more likely to die from heart disease (CDC, 2021). The National Center for Health Statistics reported that in 2020 there were over 670,000 deaths with HBP as a primary or contributing cause (CDC, 2022). Between 2009 and 2019 the number of deaths due to HBP rose by 65.3 percent (Tsao et al., 2022). Managing and treating HBP would reduce cardiovascular disease mortality for males and females by 30.4 percent and 38.0 percent, respectively (Patel et al., 2015). Age-adjusted death rates attributable to HBP in 2019 were more than twice as high in non-Hispanic Black males (56.7 percent) when compared to rates for non-Hispanic White males (25.7 percent) (Tsao et al., 2022).\n\nHBP costs the U.S. approximately 131 billion dollars each year, averaged over 12 years from 2003 to 2014 (Kirkland et al., 2018). A study on cost-effectiveness on treating hypertension found that controlling HBP in patients with cardiovascular disease and systolic blood pressures (SBP) of >= 160 mmHg could be effective and cost-saving (Moran et al., 2015).\n\nMany studies have shown that controlling high blood pressure reduces cardiovascular events and mortality. The Systolic Blood Pressure Intervention Trial (SPRINT) investigated the impact of obtaining a SBP goal of <120 mmHg compared to a SBP goal of <140 mmHg among patients 50 and older with established cardiovascular disease and found that the patients with the former goal had reduced cardiovascular events and mortality (SPRINT Research Group et al., 2015). \n\nControlling HBP will significantly reduce the risks of cardiovascular disease mortality and lead to better health outcomes like reduction of heart attacks, stroke, and kidney disease (James et al., 2014). Thus, the relationship between the measure (control of hypertension) and the long-term clinical outcomes listed is well established.","clinicalRecommendationStatement":"U.S. Preventive Services Task Force (USPSTF) (2021):\n\n- The USPSTF recommends screening for hypertension in adults 18 years or older with office blood pressure measurement (OBPM). The USPSTF recommends obtaining blood pressure measurements outside of the clinical setting for diagnostic confirmation before starting treatment. This is a grade A recommendation.  \n\nAmerican College of Cardiology/American Heart Association (2017):\n\n- For adults with confirmed hypertension and known cardiovascular disease (CVD) or 10-year atherosclerotic cardiovascular disease (ASCVD) event risk of 10 percent or higher, a blood pressure target of less than 130/80 mmHg is recommended (Level of evidence: B-R (for systolic blood pressures), Level of evidence: C-EO (for diastolic blood pressure)) \n\n- For adults with confirmed hypertension, without additional markers of increased CVD risk, a blood pressure target of less than 130/80 mmHg may be reasonable (Note: clinical trial evidence is strongest for a target blood pressure of 140/90 mmHg in this population. However, observational studies suggest that these individuals often have a high lifetime risk and would benefit from blood pressure control earlier in life) (Level of evidence: B-NR (for systolic blood pressure), Level of evidence: C-EO (for diastolic blood pressure)).\n\nAmerican Academy of Family Physicians (2022):   \n\n- Treat adults who have hypertension to a standard blood pressure target (less than 140/90 mm Hg) to reduce the risk of all-cause and cardiovascular mortality (strong recommendation; high-quality evidence). Treating to a lower blood pressure target (less than 135/85 mm Hg) does not provide additional benefit at preventing mortality; however, a lower blood pressure target could be considered based on patient preferences and values. (Grade: strong recommendation, Quality of evidence: high)\n\n- Consider treating adults who have hypertension to a lower blood pressure target (less than 135/85 mm Hg) to reduce risk of myocardial infarction (weak recommendation; moderate-quality evidence). Although treatment to a standard blood pressure target (less than 140/90 mm Hg) reduced the risk of myocardial infarction, there was a small additional benefit observed with a lower blood pressure target. There was no observed additional benefit in preventing stroke with the lower blood pressure target. (Grade: weak recommendation, Quality of evidence: low)\n\nAmerican Diabetes Association (2022): \n\n- For individuals with diabetes and hypertension at higher cardiovascular risk (existing atherosclerotic cardiovascular disease or 10-year atherosclerotic cardiovascular disease risk >=15 percent), a blood pressure target of <130/80 mmHg may be appropriate, if it can be safely attained (Level of evidence: B)\n\n- For individuals with diabetes and hypertension at lower risk for cardiovascular disease (10-year atherosclerotic cardiovascular disease risk <15 percent), treat to a blood pressure target of <140/90 mmHg (Level of evidence: A)","guidance":"In reference to the numerator element, only blood pressure readings performed by a clinician or an automated blood pressure monitor or device are acceptable for numerator compliance with this measure. This includes blood pressures taken in person by a clinician and blood pressures measured remotely by electronic monitoring devices capable of transmitting the blood pressure data to the clinician. Blood pressure readings taken by an automated blood pressure monitor or device and conveyed by the patient to the clinician are also acceptable. It is the clinician’s responsibility and discretion to confirm the automated blood pressure monitor or device used to obtain the blood pressure is considered acceptable and reliable and whether the blood pressure reading is considered accurate before documenting it in the patient’s medical record.\n\nDo not include BP readings taken during an acute inpatient stay or an emergency department (ED) visit.\n\nIf no blood pressure is recorded during the measurement period, the patient's blood pressure is assumed \"not controlled\".\n\nIf there are multiple blood pressure readings on the same day, use the lowest systolic and the lowest diastolic reading as the most recent blood pressure reading. Ranges and thresholds do not meet criteria for this measure. A distinct numeric result for both the systolic and diastolic BP reading is required for numerator compliance.\n\nThis eCQM is a patient-based measure.\n\nThis FHIR-based measure has been derived from the QDM-based measure: CMS165v13.\n\nPlease refer to the HL7 QI-Core Implementation Guide (http://hl7.org/fhir/us/qicore/STU4.1.1/) for more information on QI-Core and mapping recommendations from QDM to QI-Core 4.1.1 (http://hl7.org/fhir/us/qicore/STU4.1.1/qdm-to-qicore.html).","group":[{"id":"Group_1","extension":[{"url":"http://hl7.org/fhir/us/cqfmeasures/StructureDefinition/cqfm-scoring","valueCodeableConcept":{"coding":[{"system":"http://terminology.hl7.org/CodeSystem/measure-scoring","code":"proportion","display":"Proportion"}]}},{"url":"http://hl7.org/fhir/us/cqfmeasures/StructureDefinition/cqfm-populationBasis","valueCode":"boolean"},{"url":"http://hl7.org/fhir/us/cqfmeasures/StructureDefinition/cqfm-type","valueCodeableConcept":{"coding":[{"system":"http://terminology.hl7.org/CodeSystem/measure-type","code":"outcome","display":"Outcome"}]}},{"url":"http://hl7.org/fhir/us/cqfmeasures/StructureDefinition/cqfm-rateAggregation","valueCode":"None"},{"url":"http://hl7.org/fhir/us/cqfmeasures/StructureDefinition/cqfm-improvementNotation","valueCodeableConcept":{"coding":[{"system":"http://terminology.hl7.org/CodeSystem/measure-improvement-notation","code":"increase","display":"Increased score indicates improvement"}]}}],"population":[{"id":"InitialPopulation_1","code":{"coding":[{"system":"http://terminology.hl7.org/CodeSystem/measure-population","code":"initial-population","display":"Initial Population"}]},"description":"Patients 18-85 years of age by the end of the measurement period who had a visit during the measurement period and diagnosis of essential hypertension starting before and continuing into, or starting during the first six months of the measurement period","criteria":{"language":"text/cql-identifier","expression":"Initial Population"}},{"id":"Denominator_1","code":{"coding":[{"system":"http://terminology.hl7.org/CodeSystem/measure-population","code":"denominator","display":"Denominator"}]},"description":"Equals Initial Population","criteria":{"language":"text/cql-identifier","expression":"Denominator"}},{"id":"DenominatorExclusion_1","code":{"coding":[{"system":"http://terminology.hl7.org/CodeSystem/measure-population","code":"denominator-exclusion","display":"Denominator Exclusion"}]},"description":"Exclude patients who are in hospice care for any part of the measurement period.\n\nPatients with evidence of end stage renal disease (ESRD), dialysis or renal transplant before or during the measurement period. Also exclude patients with a diagnosis of pregnancy during the measurement period.\n\nExclude patients 66-80 by the end of the measurement period with an indication of frailty for any part of the measurement period who also meet any of the following advanced illness criteria:\n- Advanced illness diagnosis during the measurement period or the year prior\n- OR taking dementia medications during the measurement period or the year prior\n\nExclude patients 81 and older by the end of the measurement period with an indication of frailty for any part of the measurement period.\n\nExclude patients 66 and older by the end of the measurement period who are living long term in a nursing home any time on or before the end of the measurement period. \n\nExclude patients receiving palliative care for any part of the measurement period.","criteria":{"language":"text/cql-identifier","expression":"Denominator Exclusions"}},{"id":"Numerator_1","code":{"coding":[{"system":"http://terminology.hl7.org/CodeSystem/measure-population","code":"numerator","display":"Numerator"}]},"description":"Patients whose most recent blood pressure is adequately controlled (systolic blood pressure < 140 mmHg and diastolic blood pressure < 90 mmHg) during the measurement period","criteria":{"language":"text/cql-identifier","expression":"Numerator"}}]}],"supplementalData":[{"id":"sde-sex","usage":[{"coding":[{"system":"http://terminology.hl7.org/CodeSystem/measure-data-usage","code":"supplemental-data"}]}],"description":"SDE Sex","criteria":{"language":"text/cql-identifier","expression":"SDE Sex"}},{"id":"sde-race","usage":[{"coding":[{"system":"http://terminology.hl7.org/CodeSystem/measure-data-usage","code":"supplemental-data"}]}],"description":"SDE Race","criteria":{"language":"text/cql-identifier","expression":"SDE Race"}},{"id":"sde-payer","usage":[{"coding":[{"system":"http://terminology.hl7.org/CodeSystem/measure-data-usage","code":"supplemental-data"}]}],"description":"SDE Payer","criteria":{"language":"text/cql-identifier","expression":"SDE Payer"}},{"id":"sde-ethnicity","usage":[{"coding":[{"system":"http://terminology.hl7.org/CodeSystem/measure-data-usage","code":"supplemental-data"}]}],"description":"SDE Ethnicity","criteria":{"language":"text/cql-identifier","expression":"SDE Ethnicity"}}]},"request":{"method":"PUT","url":"Measure/CMS165FHIRControllingHighBloodPressure"}}]}