{
  "resourceType": "Bundle",
  "id": "ColorectalCancerScreeningCDS-bundle",
  "type": "transaction",
  "entry": [ {
    "resource": {
      "resourceType": "ValueSet",
      "id": "2.16.840.1.113883.3.464.1003.108.12.1038",
      "url": "http://cts.nlm.nih.gov/fhir/ValueSet/2.16.840.1.113883.3.464.1003.108.12.1038",
      "identifier": [ {
        "system": "urn:ietf:rfc:3986",
        "value": "2.16.840.1.113883.3.464.1003.108.12.1038"
      } ],
      "version": "20190315",
      "name": "CTColonography",
      "title": "CT Colonography",
      "status": "active",
      "experimental": false,
      "publisher": "NLM",
      "expansion": {
        "identifier": "20200507",
        "timestamp": "2021-01-14T20:59:46-07:00",
        "contains": [ {
          "system": "http://loinc.org",
          "version": "2.67",
          "code": "60515-4",
          "display": "CT Colon and Rectum W air contrast PR"
        }, {
          "system": "http://loinc.org",
          "version": "2.67",
          "code": "72531-7",
          "display": "CT Colon and Rectum W contrast IV and W air contrast PR"
        }, {
          "system": "http://loinc.org",
          "version": "2.67",
          "code": "79069-1",
          "display": "CT Colon and Rectum for screening WO contrast IV and W air contrast PR"
        }, {
          "system": "http://loinc.org",
          "version": "2.67",
          "code": "79071-7",
          "display": "CT Colon and Rectum WO contrast IV and W air contrast PR"
        }, {
          "system": "http://loinc.org",
          "version": "2.67",
          "code": "79101-2",
          "display": "CT Colon and Rectum for screening W air contrast PR"
        }, {
          "system": "http://loinc.org",
          "version": "2.67",
          "code": "82688-3",
          "display": "CT Colon and Rectum WO and W contrast IV and W air contrast PR"
        } ]
      }
    },
    "request": {
      "method": "PUT",
      "url": "ValueSet/2.16.840.1.113883.3.464.1003.108.12.1038"
    }
  }, {
    "resource": {
      "resourceType": "ValueSet",
      "id": "2.16.840.1.113883.3.464.1003.108.12.1039",
      "url": "http://cts.nlm.nih.gov/fhir/ValueSet/2.16.840.1.113883.3.464.1003.108.12.1039",
      "identifier": [ {
        "system": "urn:ietf:rfc:3986",
        "value": "2.16.840.1.113883.3.464.1003.108.12.1039"
      } ],
      "version": "20171219",
      "name": "FITDNA",
      "title": "FIT DNA",
      "status": "active",
      "experimental": false,
      "publisher": "NLM",
      "expansion": {
        "identifier": "20200507",
        "timestamp": "2021-01-14T20:59:46-07:00",
        "contains": [ {
          "system": "http://loinc.org",
          "version": "2.67",
          "code": "77353-1",
          "display": "Noninvasive colorectal cancer DNA and occult blood screening [Interpretation] in Stool Narrative"
        }, {
          "system": "http://loinc.org",
          "version": "2.67",
          "code": "77354-9",
          "display": "Noninvasive colorectal cancer DNA and occult blood screening [Presence] in Stool"
        } ]
      }
    },
    "request": {
      "method": "PUT",
      "url": "ValueSet/2.16.840.1.113883.3.464.1003.108.12.1039"
    }
  }, {
    "resource": {
      "resourceType": "ValueSet",
      "id": "2.16.840.1.113883.3.464.1003.198.12.1010",
      "url": "http://cts.nlm.nih.gov/fhir/ValueSet/2.16.840.1.113883.3.464.1003.198.12.1010",
      "identifier": [ {
        "system": "urn:ietf:rfc:3986",
        "value": "2.16.840.1.113883.3.464.1003.198.12.1010"
      } ],
      "version": "20171219",
      "name": "FlexibleSigmoidoscopy",
      "title": "Flexible Sigmoidoscopy",
      "status": "active",
      "experimental": false,
      "publisher": "NLM",
      "expansion": {
        "identifier": "20200507",
        "timestamp": "2021-01-14T20:59:46-07:00",
        "contains": [ {
          "system": "http://www.ama-assn.org/go/cpt",
          "version": "2014",
          "code": "45339",
          "display": "Sigmoidoscopy, flexible; with ablation of tumor(s), polyp(s), or other lesion(s) not amenable to removal by hot biopsy forceps, bipolar cautery or snare technique"
        }, {
          "system": "http://www.ama-assn.org/go/cpt",
          "version": "2014",
          "code": "45345",
          "display": "Sigmoidoscopy, flexible; with transendoscopic stent placement (includes predilation)"
        }, {
          "system": "http://www.ama-assn.org/go/cpt",
          "version": "2020",
          "code": "45330",
          "display": "Sigmoidoscopy, flexible; diagnostic, including collection of specimen(s) by brushing or washing, when performed (separate procedure)"
        }, {
          "system": "http://www.ama-assn.org/go/cpt",
          "version": "2020",
          "code": "45331",
          "display": "Sigmoidoscopy, flexible; with biopsy, single or multiple"
        }, {
          "system": "http://www.ama-assn.org/go/cpt",
          "version": "2020",
          "code": "45332",
          "display": "Sigmoidoscopy, flexible; with removal of foreign body(s)"
        }, {
          "system": "http://www.ama-assn.org/go/cpt",
          "version": "2020",
          "code": "45333",
          "display": "Sigmoidoscopy, flexible; with removal of tumor(s), polyp(s), or other lesion(s) by hot biopsy forceps"
        }, {
          "system": "http://www.ama-assn.org/go/cpt",
          "version": "2020",
          "code": "45334",
          "display": "Sigmoidoscopy, flexible; with control of bleeding, any method"
        }, {
          "system": "http://www.ama-assn.org/go/cpt",
          "version": "2020",
          "code": "45335",
          "display": "Sigmoidoscopy, flexible; with directed submucosal injection(s), any substance"
        }, {
          "system": "http://www.ama-assn.org/go/cpt",
          "version": "2020",
          "code": "45337",
          "display": "Sigmoidoscopy, flexible; with decompression (for pathologic distention) (eg, volvulus, megacolon), including placement of decompression tube, when performed"
        }, {
          "system": "http://www.ama-assn.org/go/cpt",
          "version": "2020",
          "code": "45338",
          "display": "Sigmoidoscopy, flexible; with removal of tumor(s), polyp(s), or other lesion(s) by snare technique"
        }, {
          "system": "http://www.ama-assn.org/go/cpt",
          "version": "2020",
          "code": "45340",
          "display": "Sigmoidoscopy, flexible; with transendoscopic balloon dilation"
        }, {
          "system": "http://www.ama-assn.org/go/cpt",
          "version": "2020",
          "code": "45341",
          "display": "Sigmoidoscopy, flexible; with endoscopic ultrasound examination"
        }, {
          "system": "http://www.ama-assn.org/go/cpt",
          "version": "2020",
          "code": "45342",
          "display": "Sigmoidoscopy, flexible; with transendoscopic ultrasound guided intramural or transmural fine needle aspiration/biopsy(s)"
        }, {
          "system": "http://www.ama-assn.org/go/cpt",
          "version": "2020",
          "code": "45346",
          "display": "Sigmoidoscopy, flexible; with ablation of tumor(s), polyp(s), or other lesion(s) (includes pre- and post-dilation and guide wire passage, when performed)"
        }, {
          "system": "http://www.ama-assn.org/go/cpt",
          "version": "2020",
          "code": "45347",
          "display": "Sigmoidoscopy, flexible; with placement of endoscopic stent (includes pre- and post-dilation and guide wire passage, when performed)"
        }, {
          "system": "http://www.ama-assn.org/go/cpt",
          "version": "2020",
          "code": "45349",
          "display": "Sigmoidoscopy, flexible; with endoscopic mucosal resection"
        }, {
          "system": "http://www.ama-assn.org/go/cpt",
          "version": "2020",
          "code": "45350",
          "display": "Sigmoidoscopy, flexible; with band ligation(s) (eg, hemorrhoids)"
        }, {
          "system": "urn:oid:2.16.840.1.113883.6.285",
          "version": "2020",
          "code": "G0104",
          "display": "Colorectal cancer screening; flexible sigmoidoscopy"
        }, {
          "system": "http://snomed.info/sct",
          "version": "2019-09",
          "code": "396226005",
          "display": "Flexible fiberoptic sigmoidoscopy with biopsy (procedure)"
        }, {
          "system": "http://snomed.info/sct",
          "version": "2019-09",
          "code": "425634007",
          "display": "Diagnostic endoscopic examination of lower bowel and sampling for bacterial overgrowth using fiberoptic sigmoidoscope (procedure)"
        }, {
          "system": "http://snomed.info/sct",
          "version": "2019-09",
          "code": "44441009",
          "display": "Flexible fiberoptic sigmoidoscopy (procedure)"
        }, {
          "system": "http://snomed.info/sct",
          "version": "2019-09",
          "code": "841000119107",
          "display": "History of flexible sigmoidoscopy (situation)"
        } ]
      }
    },
    "request": {
      "method": "PUT",
      "url": "ValueSet/2.16.840.1.113883.3.464.1003.198.12.1010"
    }
  }, {
    "resource": {
      "resourceType": "ValueSet",
      "id": "2.16.840.1.113883.3.464.1003.198.12.1011",
      "url": "http://cts.nlm.nih.gov/fhir/ValueSet/2.16.840.1.113883.3.464.1003.198.12.1011",
      "identifier": [ {
        "system": "urn:ietf:rfc:3986",
        "value": "2.16.840.1.113883.3.464.1003.198.12.1011"
      } ],
      "version": "20171219",
      "name": "FecalOccultBloodTest(FOBT)",
      "title": "Fecal Occult Blood Test (FOBT)",
      "status": "active",
      "experimental": false,
      "publisher": "NLM",
      "expansion": {
        "identifier": "20200507",
        "timestamp": "2021-01-14T20:59:46-07:00",
        "contains": [ {
          "system": "http://loinc.org",
          "version": "2.67",
          "code": "12503-9",
          "display": "Hemoglobin.gastrointestinal [Presence] in Stool --4th specimen"
        }, {
          "system": "http://loinc.org",
          "version": "2.67",
          "code": "12504-7",
          "display": "Hemoglobin.gastrointestinal [Presence] in Stool --5th specimen"
        }, {
          "system": "http://loinc.org",
          "version": "2.67",
          "code": "14563-1",
          "display": "Hemoglobin.gastrointestinal [Presence] in Stool --1st specimen"
        }, {
          "system": "http://loinc.org",
          "version": "2.67",
          "code": "14564-9",
          "display": "Hemoglobin.gastrointestinal [Presence] in Stool --2nd specimen"
        }, {
          "system": "http://loinc.org",
          "version": "2.67",
          "code": "14565-6",
          "display": "Hemoglobin.gastrointestinal [Presence] in Stool --3rd specimen"
        }, {
          "system": "http://loinc.org",
          "version": "2.67",
          "code": "2335-8",
          "display": "Hemoglobin.gastrointestinal [Presence] in Stool"
        }, {
          "system": "http://loinc.org",
          "version": "2.67",
          "code": "27396-1",
          "display": "Hemoglobin.gastrointestinal [Mass/mass] in Stool"
        }, {
          "system": "http://loinc.org",
          "version": "2.67",
          "code": "27401-9",
          "display": "Hemoglobin.gastrointestinal [Presence] in Stool --6th specimen"
        }, {
          "system": "http://loinc.org",
          "version": "2.67",
          "code": "27925-7",
          "display": "Hemoglobin.gastrointestinal [Presence] in Stool --7th specimen"
        }, {
          "system": "http://loinc.org",
          "version": "2.67",
          "code": "27926-5",
          "display": "Hemoglobin.gastrointestinal [Presence] in Stool --8th specimen"
        }, {
          "system": "http://loinc.org",
          "version": "2.67",
          "code": "29771-3",
          "display": "Hemoglobin.gastrointestinal.lower [Presence] in Stool by Immunoassay"
        }, {
          "system": "http://loinc.org",
          "version": "2.67",
          "code": "56490-6",
          "display": "Hemoglobin.gastrointestinal.lower [Presence] in Stool by Immunoassay --2nd specimen"
        }, {
          "system": "http://loinc.org",
          "version": "2.67",
          "code": "56491-4",
          "display": "Hemoglobin.gastrointestinal.lower [Presence] in Stool by Immunoassay --3rd specimen"
        }, {
          "system": "http://loinc.org",
          "version": "2.67",
          "code": "57905-2",
          "display": "Hemoglobin.gastrointestinal.lower [Presence] in Stool by Immunoassay --1st specimen"
        }, {
          "system": "http://loinc.org",
          "version": "2.67",
          "code": "58453-2",
          "display": "Hemoglobin.gastrointestinal.lower [Mass/volume] in Stool by Immunoassay"
        }, {
          "system": "http://loinc.org",
          "version": "2.67",
          "code": "80372-6",
          "display": "Hemoglobin.gastrointestinal [Presence] in Stool by Rapid immunoassay"
        } ]
      }
    },
    "request": {
      "method": "PUT",
      "url": "ValueSet/2.16.840.1.113883.3.464.1003.198.12.1011"
    }
  }, {
    "resource": {
      "resourceType": "PlanDefinition",
      "id": "ColorectalCancerScreeningCDS",
      "meta": {
        "profile": [ "http://hl7.org/fhir/uv/cpg/StructureDefinition/cpg-recommendationdefinition" ]
      },
      "name": "ColorectalCancerScreeningCDS",
      "title": "Colorectal Cancer Screening CDS",
      "type": {
        "coding": [ {
          "system": "http://terminology.hl7.org/CodeSystem/plan-definition-type",
          "code": "eca-rule",
          "display": "ECA Rule"
        } ]
      },
      "status": "draft",
      "experimental": true,
      "date": "2019-05-15",
      "library": [ "http://fhir.org/guides/cqf/ccc/Library/ColorectalCancerScreeningCDS" ],
      "action": [ {
        "title": "Colorectal Cancer Screening",
        "description": "The U.S. Preventive Services Task Force (2016) recommends screening for colorectal cancer starting at age 50 years and continuing until age 75 years. This is a Grade A recommendation (U.S. Preventive Services Task Force, 2016).",
        "documentation": [ {
          "type": "documentation",
          "display": "U.S. Preventive Services Task Force Final Recommendation Statement Colorectal Cancer: Screening",
          "url": "https://www.uspreventiveservicestaskforce.org/uspstf/recommendation/colorectal-cancer-screening"
        } ],
        "trigger": [ {
          "type": "named-event",
          "name": "patient-view"
        } ],
        "condition": [ {
          "kind": "applicability",
          "expression": {
            "language": "text/cql-identifier",
            "expression": "Is Recommendation Applicable"
          }
        } ],
        "dynamicValue": [ {
          "fhir_comments": [ " dynamic card elements " ],
          "path": "action.description",
          "expression": {
            "language": "text/cql-identifier",
            "expression": "Get Card Detail"
          }
        }, {
          "path": "action.title",
          "expression": {
            "language": "text/cql-identifier",
            "expression": "Get Card Summary"
          }
        }, {
          "path": "action.extension",
          "expression": {
            "language": "text/cql.identifier",
            "expression": "Get Card Indicator"
          }
        } ]
      } ]
    },
    "request": {
      "method": "PUT",
      "url": "PlanDefinition/ColorectalCancerScreeningCDS"
    }
  }, {
    "resource": {
      "resourceType": "ValueSet",
      "id": "inactive-condition",
      "meta": {
        "profile": [ "http://hl7.org/fhir/uv/cpg/StructureDefinition/cpg-publishablevalueset" ]
      },
      "extension": [ {
        "url": "http://hl7.org/fhir/uv/cpg/StructureDefinition/cpg-knowledgeCapability",
        "valueCode": "shareable"
      }, {
        "url": "http://hl7.org/fhir/uv/cpg/StructureDefinition/cpg-knowledgeCapability",
        "valueCode": "computable"
      }, {
        "url": "http://hl7.org/fhir/uv/cpg/StructureDefinition/cpg-knowledgeCapability",
        "valueCode": "publishable"
      }, {
        "url": "http://hl7.org/fhir/uv/cpg/StructureDefinition/cpg-knowledgeRepresentationLevel",
        "valueCode": "structured"
      }, {
        "url": "http://hl7.org/fhir/StructureDefinition/valueset-author",
        "valueContactDetail": {
          "name": "Bryn Rhodes"
        }
      } ],
      "url": "http://fhir.org/guides/cqf/common/ValueSet/inactive-condition",
      "version": "0.1.0",
      "name": "CQFInactiveCondition",
      "title": "CQF Inactive Condition",
      "status": "active",
      "experimental": false,
      "date": "2019-07-21",
      "publisher": "Health Level 7 International - Clinical Decision Support WG",
      "contact": [ {
        "telecom": [ {
          "system": "url",
          "value": "http://www.hl7.org/Special/committees/dss/index.cfm"
        } ]
      } ],
      "description": "Inactive condition clinical status codes",
      "purpose": "Used to specify the set of clinical status codes that are considered inactive",
      "copyright": "© HL7 2016+.",
      "compose": {
        "include": [ {
          "system": "http://terminology.hl7.org/CodeSystem/condition-clinical",
          "concept": [ {
            "code": "inactive",
            "display": "Inactive"
          }, {
            "code": "remission",
            "display": "Remission"
          }, {
            "code": "resolved",
            "display": "Resolved"
          } ]
        } ]
      }
    },
    "request": {
      "method": "PUT",
      "url": "ValueSet/inactive-condition"
    }
  }, {
    "resource": {
      "resourceType": "Library",
      "id": "ColorectalCancerConcepts",
      "extension": [ {
        "url": "http://hl7.org/fhir/us/cqfmeasures/StructureDefinition/cqfm-softwaresystem",
        "valueReference": {
          "reference": "Device/cqf-tooling"
        }
      } ],
      "url": "http://fhir.org/guides/cqf/ccc/Library/ColorectalCancerConcepts",
      "version": "0.1.0",
      "name": "ColorectalCancerConcepts",
      "relatedArtifact": [ {
        "type": "depends-on",
        "display": "Value set Colonoscopy",
        "resource": "http://cts.nlm.nih.gov/fhir/ValueSet/2.16.840.1.113883.3.464.1003.108.12.1020"
      }, {
        "type": "depends-on",
        "display": "Value set CT Colonography",
        "resource": "http://cts.nlm.nih.gov/fhir/ValueSet/2.16.840.1.113883.3.464.1003.108.12.1038"
      }, {
        "type": "depends-on",
        "display": "Value set Fecal Occult Blood Test (FOBT)",
        "resource": "http://cts.nlm.nih.gov/fhir/ValueSet/2.16.840.1.113883.3.464.1003.198.12.1011"
      }, {
        "type": "depends-on",
        "display": "Value set FIT DNA",
        "resource": "http://cts.nlm.nih.gov/fhir/ValueSet/2.16.840.1.113883.3.464.1003.108.12.1039"
      }, {
        "type": "depends-on",
        "display": "Value set Flexible Sigmoidoscopy",
        "resource": "http://cts.nlm.nih.gov/fhir/ValueSet/2.16.840.1.113883.3.464.1003.198.12.1010"
      }, {
        "type": "depends-on",
        "display": "Value set Malignant Neoplasm of Colon",
        "resource": "http://cts.nlm.nih.gov/fhir/ValueSet/2.16.840.1.113883.3.464.1003.108.12.1001"
      }, {
        "type": "depends-on",
        "display": "Value set Total Colectomy",
        "resource": "http://cts.nlm.nih.gov/fhir/ValueSet/2.16.840.1.113883.3.464.1003.198.12.1019"
      } ],
      "content": [ {
        "contentType": "text/cql",
        "data": ""
      }, {
        "contentType": "application/elm+xml",
        "data": ""
      }, {
        "contentType": "application/elm+json",
        "data": ""
      } ]
    },
    "request": {
      "method": "PUT",
      "url": "Library/ColorectalCancerConcepts"
    }
  }, {
    "resource": {
      "resourceType": "GuidanceResponse",
      "id": "should-screen-ccs-5",
      "contained": [ {
        "resourceType": "CarePlan",
        "id": "expected",
        "instantiatesCanonical": [ "http://fhir.org/guides/cqf/ccc/PlanDefinition/ColorectalCancerScreeningCDS" ],
        "status": "draft",
        "intent": "proposal",
        "subject": {
          "reference": "Patient/should-screen-ccs"
        },
        "activity": [ {
          "reference": {
            "reference": "#screening-recommended"
          }
        } ]
      }, {
        "resourceType": "ServiceRequest",
        "id": "screening-recommended",
        "extension": [ {
          "url": "http://hl7.org/fhir/uv/cpg/StructureDefinition/cpg-rationale",
          "valueMarkdown": "Patient meets the inclusion criteria for appropriate colorectal cancer screening, but has most recent Colonoscopy performed on 2009-12-30"
        } ],
        "status": "draft",
        "intent": "proposal",
        "doNotPerform": true,
        "code": {
          "text": "Colorectal Cancer Screening Recommended"
        },
        "subject": {
          "reference": "Patient/should-screen-ccs"
        },
        "supportingInfo": [ {
          "reference": "Procedure/should-screen-ccs-2"
        } ]
      } ],
      "moduleCanonical": "http://fhir.org/guides/cqf/ccc/PlanDefinition/ColorectalCancerScreeningCDS",
      "status": "success",
      "subject": {
        "reference": "Patient/should-screen-ccs"
      },
      "result": {
        "reference": "#expected"
      }
    },
    "request": {
      "method": "PUT",
      "url": "GuidanceResponse/should-screen-ccs-5"
    }
  }, {
    "resource": {
      "resourceType": "Procedure",
      "id": "should-screen-ccs-2",
      "meta": {
        "profile": [ "http://hl7.org/fhir/us/core/StructureDefinition/us-core-procedure" ]
      },
      "status": "completed",
      "code": {
        "coding": [ {
          "system": "http://www.ama-assn.org/go/cpt",
          "code": "44392",
          "display": "Colonoscopy through stoma; with removal of tumor(s), polyp(s), or other lesion(s) by hot biopsy forceps"
        } ]
      },
      "subject": {
        "reference": "Patient/should-screen-ccs"
      },
      "performedPeriod": {
        "start": "2011-12-30T12:00:00",
        "end": "2011-12-30T13:00:00"
      }
    },
    "request": {
      "method": "PUT",
      "url": "Procedure/should-screen-ccs-2"
    }
  }, {
    "resource": {
      "resourceType": "ValueSet",
      "id": "2.16.840.1.113883.3.464.1003.198.12.1019",
      "url": "http://cts.nlm.nih.gov/fhir/ValueSet/2.16.840.1.113883.3.464.1003.198.12.1019",
      "identifier": [ {
        "system": "urn:ietf:rfc:3986",
        "value": "2.16.840.1.113883.3.464.1003.198.12.1019"
      } ],
      "version": "20190315",
      "name": "TotalColectomy",
      "title": "Total Colectomy",
      "status": "active",
      "experimental": false,
      "publisher": "NLM",
      "expansion": {
        "identifier": "20200507",
        "timestamp": "2021-01-14T20:59:46-07:00",
        "contains": [ {
          "system": "http://www.ama-assn.org/go/cpt",
          "version": "2020",
          "code": "44150",
          "display": "Colectomy, total, abdominal, without proctectomy; with ileostomy or ileoproctostomy"
        }, {
          "system": "http://www.ama-assn.org/go/cpt",
          "version": "2020",
          "code": "44151",
          "display": "Colectomy, total, abdominal, without proctectomy; with continent ileostomy"
        }, {
          "system": "http://www.ama-assn.org/go/cpt",
          "version": "2020",
          "code": "44155",
          "display": "Colectomy, total, abdominal, with proctectomy; with ileostomy"
        }, {
          "system": "http://www.ama-assn.org/go/cpt",
          "version": "2020",
          "code": "44156",
          "display": "Colectomy, total, abdominal, with proctectomy; with continent ileostomy"
        }, {
          "system": "http://www.ama-assn.org/go/cpt",
          "version": "2020",
          "code": "44157",
          "display": "Colectomy, total, abdominal, with proctectomy; with ileoanal anastomosis, includes loop ileostomy, and rectal mucosectomy, when performed"
        }, {
          "system": "http://www.ama-assn.org/go/cpt",
          "version": "2020",
          "code": "44158",
          "display": "Colectomy, total, abdominal, with proctectomy; with ileoanal anastomosis, creation of ileal reservoir (S or J), includes loop ileostomy, and rectal mucosectomy, when performed"
        }, {
          "system": "http://www.ama-assn.org/go/cpt",
          "version": "2020",
          "code": "44210",
          "display": "Laparoscopy, surgical; colectomy, total, abdominal, without proctectomy, with ileostomy or ileoproctostomy"
        }, {
          "system": "http://www.ama-assn.org/go/cpt",
          "version": "2020",
          "code": "44211",
          "display": "Laparoscopy, surgical; colectomy, total, abdominal, with proctectomy, with ileoanal anastomosis, creation of ileal reservoir (S or J), with loop ileostomy, includes rectal mucosectomy, when performed"
        }, {
          "system": "http://www.ama-assn.org/go/cpt",
          "version": "2020",
          "code": "44212",
          "display": "Laparoscopy, surgical; colectomy, total, abdominal, with proctectomy, with ileostomy"
        }, {
          "system": "http://www.cms.gov/Medicare/Coding/ICD10",
          "version": "2020",
          "code": "0DTE0ZZ",
          "display": "Resection of Large Intestine, Open Approach"
        }, {
          "system": "http://www.cms.gov/Medicare/Coding/ICD10",
          "version": "2020",
          "code": "0DTE4ZZ",
          "display": "Resection of Large Intestine, Percutaneous Endoscopic Approach"
        }, {
          "system": "http://www.cms.gov/Medicare/Coding/ICD10",
          "version": "2020",
          "code": "0DTE7ZZ",
          "display": "Resection of Large Intestine, Via Natural or Artificial Opening"
        }, {
          "system": "http://www.cms.gov/Medicare/Coding/ICD10",
          "version": "2020",
          "code": "0DTE8ZZ",
          "display": "Resection of Large Intestine, Via Natural or Artificial Opening Endoscopic"
        }, {
          "system": "http://terminology.hl7.org/CodeSystem/icd9cm",
          "version": "2013",
          "code": "45.81",
          "display": "Laparoscopic total intra-abdominal colectomy"
        }, {
          "system": "http://terminology.hl7.org/CodeSystem/icd9cm",
          "version": "2013",
          "code": "45.82",
          "display": "Open total intra-abdominal colectomy"
        }, {
          "system": "http://terminology.hl7.org/CodeSystem/icd9cm",
          "version": "2013",
          "code": "45.83",
          "display": "Other and unspecified total intra-abdominal colectomy"
        }, {
          "system": "http://snomed.info/sct",
          "version": "2019-09",
          "code": "119771000119101",
          "display": "History of total colectomy (situation)"
        }, {
          "system": "http://snomed.info/sct",
          "version": "2019-09",
          "code": "26390003",
          "display": "Total colectomy (procedure)"
        }, {
          "system": "http://snomed.info/sct",
          "version": "2019-09",
          "code": "303401008",
          "display": "Parks panproctocolectomy, anastomosis of ileum to anus and creation of pouch (procedure)"
        }, {
          "system": "http://snomed.info/sct",
          "version": "2019-09",
          "code": "307666008",
          "display": "Total colectomy and ileostomy (procedure)"
        }, {
          "system": "http://snomed.info/sct",
          "version": "2019-09",
          "code": "307667004",
          "display": "Total colectomy, ileostomy and rectal mucous fistula (procedure)"
        }, {
          "system": "http://snomed.info/sct",
          "version": "2019-09",
          "code": "307669001",
          "display": "Total colectomy, ileostomy and closure of rectal stump (procedure)"
        }, {
          "system": "http://snomed.info/sct",
          "version": "2019-09",
          "code": "31130001",
          "display": "Total abdominal colectomy with proctectomy and ileostomy (procedure)"
        }, {
          "system": "http://snomed.info/sct",
          "version": "2019-09",
          "code": "36192008",
          "display": "Total abdominal colectomy with ileoproctostomy (procedure)"
        }, {
          "system": "http://snomed.info/sct",
          "version": "2019-09",
          "code": "44751009",
          "display": "Total abdominal colectomy with proctectomy and continent ileostomy (procedure)"
        }, {
          "system": "http://snomed.info/sct",
          "version": "2019-09",
          "code": "456004",
          "display": "Total abdominal colectomy with ileostomy (procedure)"
        }, {
          "system": "http://snomed.info/sct",
          "version": "2019-09",
          "code": "80294005",
          "display": "Total abdominal colectomy with rectal mucosectomy and ileoanal anastomosis (procedure)"
        } ]
      }
    },
    "request": {
      "method": "PUT",
      "url": "ValueSet/2.16.840.1.113883.3.464.1003.198.12.1019"
    }
  }, {
    "resource": {
      "resourceType": "Encounter",
      "id": "should-screen-ccs-1",
      "meta": {
        "profile": [ "http://hl7.org/fhir/us/core/StructureDefinition/us-core-encounter" ]
      },
      "status": "finished",
      "class": {
        "system": "http://terminology.hl7.org/CodeSystem/v3-ActCode",
        "code": "AMB",
        "display": "ambulatory"
      },
      "type": [ {
        "coding": [ {
          "system": "http://www.ama-assn.org/go/cpt",
          "code": "99201",
          "display": "Office or other outpatient visit for the evaluation and management of a new patient, which requires these 3 key components: A problem focused history; A problem focused examination; Straightforward medical decision making. Counseling and/or coordination of care with other physicians, other qualified health care professionals, or agencies are provided consistent with the nature of the problem(s) and the patient's and/or family's needs. Usually, the presenting problem(s) are self limited or minor. Typically, 10 minutes are spent face-to-face with the patient and/or family."
        } ]
      } ],
      "subject": {
        "reference": "Patient/should-screen-ccs"
      },
      "period": {
        "start": "2022-05-30T00:00:00-00:00",
        "end": "2022-05-31T00:00:00-00:00"
      }
    },
    "request": {
      "method": "PUT",
      "url": "Encounter/should-screen-ccs-1"
    }
  }, {
    "resource": {
      "resourceType": "Library",
      "id": "FHIRHelpers",
      "meta": {
        "profile": [ "http://hl7.org/fhir/uv/cpg/StructureDefinition/cpg-shareablelibrary", "http://hl7.org/fhir/uv/cpg/StructureDefinition/cpg-computablelibrary", "http://hl7.org/fhir/uv/cpg/StructureDefinition/cpg-publishablelibrary", "http://hl7.org/fhir/uv/cpg/StructureDefinition/cpg-executablelibrary" ]
      },
      "extension": [ {
        "url": "http://hl7.org/fhir/uv/cpg/StructureDefinition/cpg-knowledgeCapability",
        "valueCode": "shareable"
      }, {
        "url": "http://hl7.org/fhir/uv/cpg/StructureDefinition/cpg-knowledgeCapability",
        "valueCode": "computable"
      }, {
        "url": "http://hl7.org/fhir/uv/cpg/StructureDefinition/cpg-knowledgeCapability",
        "valueCode": "publishable"
      }, {
        "url": "http://hl7.org/fhir/uv/cpg/StructureDefinition/cpg-knowledgeCapability",
        "valueCode": "executable"
      }, {
        "url": "http://hl7.org/fhir/uv/cpg/StructureDefinition/cpg-knowledgeRepresentationLevel",
        "valueCode": "structured"
      }, {
        "url": "http://hl7.org/fhir/us/cqfmeasures/StructureDefinition/cqfm-softwaresystem",
        "valueReference": {
          "reference": "Device/cqf-tooling"
        }
      } ],
      "url": "http://fhir.org/guides/cqf/ccc/Library/FHIRHelpers",
      "version": "4.0.1",
      "name": "FHIRHelpers",
      "title": "FHIR Helpers",
      "status": "active",
      "experimental": false,
      "type": {
        "coding": [ {
          "system": "http://terminology.hl7.org/CodeSystem/library-type",
          "code": "logic-library"
        } ]
      },
      "date": "2020-11-29T15:54:22-07:00",
      "description": "This library defines functions to convert between FHIR data types and CQL system-defined types, as well as functions to support FHIRPath implementation. For more information, the FHIRHelpers wiki page: https://github.com/cqframework/clinical_quality_language/wiki/FHIRHelpers",
      "approvalDate": "2021-03-12",
      "lastReviewDate": "2021-03-12",
      "topic": [ {
        "text": "FHIR"
      }, {
        "text": "CQL"
      } ],
      "relatedArtifact": [ {
        "type": "documentation",
        "display": "Using FHIR Helpers",
        "url": "https://github.com/cqframework/clinical_quality_language/wiki/FHIRHelpers"
      }, {
        "type": "depends-on",
        "display": "FHIR model information",
        "resource": "http://fhir.org/guides/cqf/common/Library/FHIR-ModelInfo|4.0.1"
      } ],
      "content": [ {
        "contentType": "text/cql",
        "data": ""
      }, {
        "contentType": "application/elm+xml",
        "data": ""
      }, {
        "contentType": "application/elm+json",
        "data": ""
      } ]
    },
    "request": {
      "method": "PUT",
      "url": "Library/FHIRHelpers"
    }
  }, {
    "resource": {
      "resourceType": "Patient",
      "id": "should-screen-ccs",
      "meta": {
        "profile": [ "http://hl7.org/fhir/us/core/StructureDefinition/us-core-patient" ]
      },
      "extension": [ {
        "url": "http://hl7.org/fhir/us/core/StructureDefinition/us-core-race",
        "extension": [ {
          "url": "ombCategory",
          "valueCoding": {
            "system": "urn:oid:2.16.840.1.113883.6.238",
            "code": "2028-9",
            "display": "Asian"
          }
        } ]
      }, {
        "url": "http://hl7.org/fhir/us/core/StructureDefinition/us-core-ethnicity",
        "extension": [ {
          "url": "ombCategory",
          "valueCoding": {
            "system": "urn:oid:2.16.840.1.113883.6.238",
            "code": "2135-2",
            "display": "Hispanic or Latino"
          }
        } ]
      } ],
      "identifier": [ {
        "use": "usual",
        "type": {
          "coding": [ {
            "system": "http://terminology.hl7.org/CodeSystem/v2-0203",
            "code": "MR",
            "display": "Medical Record Number"
          } ]
        },
        "system": "http://hospital.smarthealthit.org",
        "value": "999999992"
      } ],
      "name": [ {
        "family": "Dere",
        "given": [ "Ben" ]
      } ],
      "gender": "male",
      "birthDate": "1968-01-01"
    },
    "request": {
      "method": "PUT",
      "url": "Patient/should-screen-ccs"
    }
  }, {
    "resource": {
      "resourceType": "Patient",
      "id": "should-not-screen-ccs",
      "meta": {
        "profile": [ "http://hl7.org/fhir/us/core/StructureDefinition/us-core-patient" ]
      },
      "extension": [ {
        "url": "http://hl7.org/fhir/us/core/StructureDefinition/us-core-race",
        "extension": [ {
          "url": "ombCategory",
          "valueCoding": {
            "system": "urn:oid:2.16.840.1.113883.6.238",
            "code": "2028-9",
            "display": "Asian"
          }
        } ]
      }, {
        "url": "http://hl7.org/fhir/us/core/StructureDefinition/us-core-ethnicity",
        "extension": [ {
          "url": "ombCategory",
          "valueCoding": {
            "system": "urn:oid:2.16.840.1.113883.6.238",
            "code": "2135-2",
            "display": "Hispanic or Latino"
          }
        } ]
      } ],
      "identifier": [ {
        "use": "usual",
        "type": {
          "coding": [ {
            "system": "http://terminology.hl7.org/CodeSystem/v2-0203",
            "code": "MR",
            "display": "Medical Record Number"
          } ]
        },
        "system": "http://hospital.smarthealthit.org",
        "value": "999999992"
      } ],
      "name": [ {
        "family": "Blitz",
        "given": [ "Don" ]
      } ],
      "gender": "male",
      "birthDate": "1968-01-01"
    },
    "request": {
      "method": "PUT",
      "url": "Patient/should-not-screen-ccs"
    }
  }, {
    "resource": {
      "resourceType": "Procedure",
      "id": "should-not-screen-ccs-1",
      "meta": {
        "profile": [ "http://hl7.org/fhir/us/core/StructureDefinition/us-core-procedure" ]
      },
      "status": "completed",
      "code": {
        "coding": [ {
          "system": "http://www.ama-assn.org/go/cpt",
          "code": "44388",
          "display": "Colonoscopy through stoma; with ablation of tumor(s), polyp(s), or other lesion(s) not amenable to removal by hot biopsy forceps, bipolar cautery or snare technique"
        } ]
      },
      "subject": {
        "reference": "Patient/should-not-screen-ccs"
      },
      "performedPeriod": {
        "start": "2015-01-01T00:00:00-06:00",
        "end": "2015-01-01T01:00:00-07:00"
      }
    },
    "request": {
      "method": "PUT",
      "url": "Procedure/should-not-screen-ccs-1"
    }
  }, {
    "resource": {
      "resourceType": "Encounter",
      "id": "should-not-screen-ccs-4",
      "meta": {
        "profile": [ "http://hl7.org/fhir/us/core/StructureDefinition/us-core-encounter" ]
      },
      "status": "finished",
      "class": {
        "system": "http://terminology.hl7.org/CodeSystem/v3-ActCode",
        "code": "AMB",
        "display": "ambulatory"
      },
      "type": [ {
        "coding": [ {
          "system": "http://www.ama-assn.org/go/cpt",
          "code": "99201",
          "display": "Office or other outpatient visit for the evaluation and management of a new patient, which requires these 3 key components: A problem focused history; A problem focused examination; Straightforward medical decision making. Counseling and/or coordination of care with other physicians, other qualified health care professionals, or agencies are provided consistent with the nature of the problem(s) and the patient's and/or family's needs. Usually, the presenting problem(s) are self limited or minor. Typically, 10 minutes are spent face-to-face with the patient and/or family."
        } ]
      } ],
      "subject": {
        "reference": "Patient/should-not-screen-ccs"
      },
      "period": {
        "start": "2022-05-30T00:00:00.0",
        "end": "2022-05-31T00:00:00.0"
      }
    },
    "request": {
      "method": "PUT",
      "url": "Encounter/should-not-screen-ccs-4"
    }
  }, {
    "resource": {
      "resourceType": "GuidanceResponse",
      "id": "should-not-screen-ccs-6",
      "contained": [ {
        "resourceType": "CarePlan",
        "id": "expected",
        "instantiatesCanonical": [ "http://fhir.org/guides/cqf/ccc/PlanDefinition/ColorectalCancerScreeningCDS" ],
        "status": "draft",
        "intent": "proposal",
        "subject": {
          "reference": "Patient/should-not-screen-ccs"
        },
        "activity": [ {
          "reference": {
            "reference": "#screening-not-recommended"
          }
        } ]
      }, {
        "resourceType": "ServiceRequest",
        "id": "screening-not-recommended",
        "extension": [ {
          "url": "http://hl7.org/fhir/uv/cpg/StructureDefinition/cpg-rationale",
          "valueMarkdown": "Patient has appropriate colorectal cancer screening: most recent Colonoscopy performed on 2012-01-01"
        } ],
        "status": "draft",
        "intent": "proposal",
        "doNotPerform": true,
        "code": {
          "text": "Colorectal Cancer Screening Not Recommended"
        },
        "subject": {
          "reference": "Patient/should-not-screen-ccs"
        },
        "supportingInfo": [ {
          "reference": "Procedure/should-not-screen-ccs-1"
        } ]
      } ],
      "moduleCanonical": "http://fhir.org/guides/cqf/ccc/PlanDefinition/ColorectalCancerScreeningCDS",
      "status": "success",
      "subject": {
        "reference": "Patient/should-not-screen-ccs"
      },
      "result": {
        "reference": "#expected"
      }
    },
    "request": {
      "method": "PUT",
      "url": "GuidanceResponse/should-not-screen-ccs-6"
    }
  }, {
    "resource": {
      "resourceType": "Library",
      "id": "ColorectalCancerElements",
      "meta": {
        "profile": [ "http://hl7.org/fhir/uv/cpg/StructureDefinition/cpg-shareablelibrary", "http://hl7.org/fhir/uv/cpg/StructureDefinition/cpg-computablelibrary", "http://hl7.org/fhir/uv/cpg/StructureDefinition/cpg-publishablelibrary", "http://hl7.org/fhir/uv/cpg/StructureDefinition/cpg-executablelibrary" ]
      },
      "extension": [ {
        "url": "http://hl7.org/fhir/uv/cpg/StructureDefinition/cpg-knowledgeCapability",
        "valueCode": "shareable"
      }, {
        "url": "http://hl7.org/fhir/uv/cpg/StructureDefinition/cpg-knowledgeCapability",
        "valueCode": "computable"
      }, {
        "url": "http://hl7.org/fhir/uv/cpg/StructureDefinition/cpg-knowledgeCapability",
        "valueCode": "publishable"
      }, {
        "url": "http://hl7.org/fhir/uv/cpg/StructureDefinition/cpg-knowledgeCapability",
        "valueCode": "executable"
      }, {
        "url": "http://hl7.org/fhir/uv/cpg/StructureDefinition/cpg-knowledgeRepresentationLevel",
        "valueCode": "structured"
      }, {
        "url": "http://hl7.org/fhir/us/cqfmeasures/StructureDefinition/cqfm-softwaresystem",
        "valueReference": {
          "reference": "Device/cqf-tooling"
        }
      } ],
      "url": "http://fhir.org/guides/cqf/ccc/Library/ColorectalCancerElements",
      "version": "0.1.0",
      "name": "ColorectalCancerElements",
      "title": "Colorectal Cancer Elements",
      "status": "active",
      "experimental": false,
      "type": {
        "coding": [ {
          "system": "http://terminology.hl7.org/CodeSystem/library-type",
          "code": "logic-library"
        } ]
      },
      "date": "2020-11-29T15:54:22-07:00",
      "description": "Colorectal Cancer Elements",
      "topic": [ {
        "text": "FHIR"
      }, {
        "text": "CQL"
      } ],
      "relatedArtifact": [ {
        "type": "depends-on",
        "display": "FHIR model information",
        "resource": "http://fhir.org/guides/cqf/common/Library/FHIR-ModelInfo|4.0.1"
      }, {
        "type": "depends-on",
        "display": "Library FHIRHelpers",
        "resource": "http://fhir.org/guides/cqf/ccc/Library/FHIRHelpers|4.0.1"
      }, {
        "type": "depends-on",
        "display": "Library FC",
        "resource": "http://fhir.org/guides/cqf/ccc/Library/FHIRCommon|4.0.1"
      }, {
        "type": "depends-on",
        "display": "Library Cx",
        "resource": "http://fhir.org/guides/cqf/ccc/Library/ColorectalCancerConcepts"
      }, {
        "type": "depends-on",
        "display": "Code system ConditionVerificationStatusCodes",
        "resource": "http://terminology.hl7.org/CodeSystem/condition-ver-status"
      }, {
        "type": "depends-on",
        "display": "Value set Flexible Sigmoidoscopy",
        "resource": "http://cts.nlm.nih.gov/fhir/ValueSet/2.16.840.1.113883.3.464.1003.198.12.1010"
      }, {
        "type": "depends-on",
        "display": "Value set Active Condition",
        "resource": "http://fhir.org/guides/cqf/common/ValueSet/active-condition"
      }, {
        "type": "depends-on",
        "display": "Value set CT Colonography",
        "resource": "http://cts.nlm.nih.gov/fhir/ValueSet/2.16.840.1.113883.3.464.1003.108.12.1038"
      }, {
        "type": "depends-on",
        "display": "Value set Total Colectomy",
        "resource": "http://cts.nlm.nih.gov/fhir/ValueSet/2.16.840.1.113883.3.464.1003.198.12.1019"
      }, {
        "type": "depends-on",
        "display": "Value set Fecal Occult Blood Test (FOBT)",
        "resource": "http://cts.nlm.nih.gov/fhir/ValueSet/2.16.840.1.113883.3.464.1003.198.12.1011"
      }, {
        "type": "depends-on",
        "display": "Value set FIT DNA",
        "resource": "http://cts.nlm.nih.gov/fhir/ValueSet/2.16.840.1.113883.3.464.1003.108.12.1039"
      }, {
        "type": "depends-on",
        "display": "Value set Colonoscopy",
        "resource": "http://cts.nlm.nih.gov/fhir/ValueSet/2.16.840.1.113883.3.464.1003.108.12.1020"
      }, {
        "type": "depends-on",
        "display": "Value set Malignant Neoplasm of Colon",
        "resource": "http://cts.nlm.nih.gov/fhir/ValueSet/2.16.840.1.113883.3.464.1003.108.12.1001"
      } ],
      "parameter": [ {
        "name": "Measurement Period",
        "use": "in",
        "min": 0,
        "max": "1",
        "type": "Period"
      }, {
        "name": "Patient",
        "use": "out",
        "min": 0,
        "max": "1",
        "type": "Patient"
      }, {
        "name": "AsOf",
        "use": "out",
        "min": 0,
        "max": "1",
        "type": "dateTime"
      }, {
        "name": "Flexible Sigmoidoscopy Performed",
        "use": "out",
        "min": 0,
        "max": "*",
        "type": "Procedure"
      }, {
        "name": "Flexible Sigmoidoscopy from Patient History",
        "use": "out",
        "min": 0,
        "max": "*",
        "type": "Condition"
      }, {
        "name": "CT Colonography Performed",
        "use": "out",
        "min": 0,
        "max": "*",
        "type": "Procedure"
      }, {
        "name": "Total Colectomy Performed",
        "use": "out",
        "min": 0,
        "max": "*",
        "type": "Procedure"
      }, {
        "name": "Total Colectomy from Patient History",
        "use": "out",
        "min": 0,
        "max": "*",
        "type": "Condition"
      }, {
        "name": "Fecal Occult Blood Test Result",
        "use": "out",
        "min": 0,
        "max": "*",
        "type": "Observation"
      }, {
        "name": "Fecal Immunochemical Test DNA Result",
        "use": "out",
        "min": 0,
        "max": "*",
        "type": "Observation"
      }, {
        "name": "Colonoscopy Performed",
        "use": "out",
        "min": 0,
        "max": "*",
        "type": "Procedure"
      }, {
        "name": "Colonoscopy from Patient History",
        "use": "out",
        "min": 0,
        "max": "*",
        "type": "Condition"
      }, {
        "name": "Active Malignant Neoplasm",
        "use": "out",
        "min": 0,
        "max": "*",
        "type": "Condition"
      }, {
        "name": "Fecal Occult Blood Test Result Within 1 Year",
        "use": "out",
        "min": 0,
        "max": "*",
        "type": "Observation"
      }, {
        "name": "Most Recent Fecal Occult Blood Test Result",
        "use": "out",
        "min": 0,
        "max": "1",
        "type": "Observation"
      }, {
        "name": "Fecal Immunochemical Test DNA Result Within 3 Years",
        "use": "out",
        "min": 0,
        "max": "*",
        "type": "Observation"
      }, {
        "name": "Most Recent Fecal Immunochemical Test DNA Result",
        "use": "out",
        "min": 0,
        "max": "1",
        "type": "Observation"
      }, {
        "name": "Flexible Sigmoidoscopy Performed Within 5 Years",
        "use": "out",
        "min": 0,
        "max": "*",
        "type": "Procedure"
      }, {
        "name": "Most Recent Flexible Sigmoidoscopy Performed",
        "use": "out",
        "min": 0,
        "max": "1",
        "type": "Procedure"
      }, {
        "name": "CT Colonography Performed Within 5 Years",
        "use": "out",
        "min": 0,
        "max": "*",
        "type": "Procedure"
      }, {
        "name": "Most Recent CT Colonography Performed",
        "use": "out",
        "min": 0,
        "max": "1",
        "type": "Procedure"
      }, {
        "name": "Colonoscopy Performed Within 10 Years",
        "use": "out",
        "min": 0,
        "max": "*",
        "type": "Procedure"
      }, {
        "name": "Most Recent Colonoscopy Performed",
        "use": "out",
        "min": 0,
        "max": "1",
        "type": "Procedure"
      }, {
        "name": "Has Active Malignant Neoplasm",
        "use": "out",
        "min": 0,
        "max": "1",
        "type": "boolean"
      }, {
        "name": "Has Total Colectomy Performed",
        "use": "out",
        "min": 0,
        "max": "1",
        "type": "boolean"
      }, {
        "name": "Has History of Total Colectomy",
        "use": "out",
        "min": 0,
        "max": "1",
        "type": "boolean"
      }, {
        "name": "Has Appropriate Colorectal Cancer Screening",
        "use": "out",
        "min": 0,
        "max": "1",
        "type": "boolean"
      }, {
        "name": "Has History of Appropriate Colorectal Cancer Screening",
        "use": "out",
        "min": 0,
        "max": "1",
        "type": "boolean"
      } ],
      "dataRequirement": [ {
        "type": "Patient",
        "profile": [ "http://hl7.org/fhir/StructureDefinition/Patient" ]
      }, {
        "type": "Procedure",
        "profile": [ "http://hl7.org/fhir/StructureDefinition/Procedure" ],
        "mustSupport": [ "code", "status" ],
        "codeFilter": [ {
          "path": "code",
          "valueSet": "http://cts.nlm.nih.gov/fhir/ValueSet/2.16.840.1.113883.3.464.1003.198.12.1019"
        } ]
      }, {
        "type": "Procedure",
        "profile": [ "http://hl7.org/fhir/StructureDefinition/Procedure" ],
        "mustSupport": [ "code", "performed", "status" ],
        "codeFilter": [ {
          "path": "code",
          "valueSet": "http://cts.nlm.nih.gov/fhir/ValueSet/2.16.840.1.113883.3.464.1003.198.12.1010"
        } ]
      }, {
        "type": "Procedure",
        "profile": [ "http://hl7.org/fhir/StructureDefinition/Procedure" ],
        "mustSupport": [ "code", "performed", "status" ],
        "codeFilter": [ {
          "path": "code",
          "valueSet": "http://cts.nlm.nih.gov/fhir/ValueSet/2.16.840.1.113883.3.464.1003.108.12.1038"
        } ]
      }, {
        "type": "Procedure",
        "profile": [ "http://hl7.org/fhir/StructureDefinition/Procedure" ],
        "mustSupport": [ "code", "performed", "status" ],
        "codeFilter": [ {
          "path": "code",
          "valueSet": "http://cts.nlm.nih.gov/fhir/ValueSet/2.16.840.1.113883.3.464.1003.108.12.1020"
        } ]
      }, {
        "type": "Condition",
        "profile": [ "http://hl7.org/fhir/StructureDefinition/Condition" ],
        "mustSupport": [ "code", "verificationStatus", "clinicalStatus" ],
        "codeFilter": [ {
          "path": "code",
          "valueSet": "http://cts.nlm.nih.gov/fhir/ValueSet/2.16.840.1.113883.3.464.1003.108.12.1001"
        } ]
      }, {
        "type": "Condition",
        "profile": [ "http://hl7.org/fhir/StructureDefinition/Condition" ],
        "mustSupport": [ "code", "verificationStatus", "clinicalStatus" ],
        "codeFilter": [ {
          "path": "code",
          "valueSet": "http://cts.nlm.nih.gov/fhir/ValueSet/2.16.840.1.113883.3.464.1003.198.12.1019"
        } ]
      }, {
        "type": "Condition",
        "profile": [ "http://hl7.org/fhir/StructureDefinition/Condition" ],
        "mustSupport": [ "code", "verificationStatus", "clinicalStatus" ],
        "codeFilter": [ {
          "path": "code",
          "valueSet": "http://cts.nlm.nih.gov/fhir/ValueSet/2.16.840.1.113883.3.464.1003.198.12.1010"
        } ]
      }, {
        "type": "Condition",
        "profile": [ "http://hl7.org/fhir/StructureDefinition/Condition" ],
        "mustSupport": [ "code", "verificationStatus", "clinicalStatus" ],
        "codeFilter": [ {
          "path": "code",
          "valueSet": "http://cts.nlm.nih.gov/fhir/ValueSet/2.16.840.1.113883.3.464.1003.108.12.1020"
        } ]
      }, {
        "type": "Observation",
        "profile": [ "http://hl7.org/fhir/StructureDefinition/Observation" ],
        "mustSupport": [ "code", "issued", "value", "status" ],
        "codeFilter": [ {
          "path": "code",
          "valueSet": "http://cts.nlm.nih.gov/fhir/ValueSet/2.16.840.1.113883.3.464.1003.198.12.1011"
        } ]
      }, {
        "type": "Observation",
        "profile": [ "http://hl7.org/fhir/StructureDefinition/Observation" ],
        "mustSupport": [ "code", "issued", "value", "status" ],
        "codeFilter": [ {
          "path": "code",
          "valueSet": "http://cts.nlm.nih.gov/fhir/ValueSet/2.16.840.1.113883.3.464.1003.108.12.1039"
        } ]
      } ],
      "content": [ {
        "contentType": "text/cql",
        "data": ""
      }, {
        "contentType": "application/elm+xml",
        "data": ""
      }, {
        "contentType": "application/elm+json",
        "data": ""
      } ]
    },
    "request": {
      "method": "PUT",
      "url": "Library/ColorectalCancerElements"
    }
  }, {
    "resource": {
      "resourceType": "ValueSet",
      "id": "2.16.840.1.113883.3.464.1003.108.12.1020",
      "url": "http://cts.nlm.nih.gov/fhir/ValueSet/2.16.840.1.113883.3.464.1003.108.12.1020",
      "identifier": [ {
        "system": "urn:ietf:rfc:3986",
        "value": "2.16.840.1.113883.3.464.1003.108.12.1020"
      } ],
      "version": "20171219",
      "name": "Colonoscopy",
      "title": "Colonoscopy",
      "status": "active",
      "experimental": false,
      "publisher": "NLM",
      "expansion": {
        "identifier": "20200507",
        "timestamp": "2021-01-14T20:59:46-07:00",
        "contains": [ {
          "system": "http://www.ama-assn.org/go/cpt",
          "version": "2020",
          "code": "44388",
          "display": "Colonoscopy through stoma; diagnostic, including collection of specimen(s) by brushing or washing, when performed (separate procedure)"
        }, {
          "system": "http://www.ama-assn.org/go/cpt",
          "version": "2020",
          "code": "44389",
          "display": "Colonoscopy through stoma; with biopsy, single or multiple"
        }, {
          "system": "http://www.ama-assn.org/go/cpt",
          "version": "2020",
          "code": "44390",
          "display": "Colonoscopy through stoma; with removal of foreign body(s)"
        }, {
          "system": "http://www.ama-assn.org/go/cpt",
          "version": "2020",
          "code": "44391",
          "display": "Colonoscopy through stoma; with control of bleeding, any method"
        }, {
          "system": "http://www.ama-assn.org/go/cpt",
          "version": "2020",
          "code": "44392",
          "display": "Colonoscopy through stoma; with removal of tumor(s), polyp(s), or other lesion(s) by hot biopsy forceps"
        }, {
          "system": "http://www.ama-assn.org/go/cpt",
          "version": "2020",
          "code": "44394",
          "display": "Colonoscopy through stoma; with removal of tumor(s), polyp(s), or other lesion(s) by snare technique"
        }, {
          "system": "http://www.ama-assn.org/go/cpt",
          "version": "2020",
          "code": "44401",
          "display": "Colonoscopy through stoma; with ablation of tumor(s), polyp(s), or other lesion(s) (includes pre-and post-dilation and guide wire passage, when performed)"
        }, {
          "system": "http://www.ama-assn.org/go/cpt",
          "version": "2020",
          "code": "44402",
          "display": "Colonoscopy through stoma; with endoscopic stent placement (including pre- and post-dilation and guide wire passage, when performed)"
        }, {
          "system": "http://www.ama-assn.org/go/cpt",
          "version": "2020",
          "code": "44403",
          "display": "Colonoscopy through stoma; with endoscopic mucosal resection"
        }, {
          "system": "http://www.ama-assn.org/go/cpt",
          "version": "2020",
          "code": "44404",
          "display": "Colonoscopy through stoma; with directed submucosal injection(s), any substance"
        }, {
          "system": "http://www.ama-assn.org/go/cpt",
          "version": "2020",
          "code": "44405",
          "display": "Colonoscopy through stoma; with transendoscopic balloon dilation"
        }, {
          "system": "http://www.ama-assn.org/go/cpt",
          "version": "2020",
          "code": "44406",
          "display": "Colonoscopy through stoma; with endoscopic ultrasound examination, limited to the sigmoid, descending, transverse, or ascending colon and cecum and adjacent structures"
        }, {
          "system": "http://www.ama-assn.org/go/cpt",
          "version": "2020",
          "code": "44407",
          "display": "Colonoscopy through stoma; with transendoscopic ultrasound guided intramural or transmural fine needle aspiration/biopsy(s), includes endoscopic ultrasound examination limited to the sigmoid, descending, transverse, or ascending colon and cecum and adjacent structures"
        }, {
          "system": "http://www.ama-assn.org/go/cpt",
          "version": "2020",
          "code": "44408",
          "display": "Colonoscopy through stoma; with decompression (for pathologic distention) (eg, volvulus, megacolon), including placement of decompression tube, when performed"
        }, {
          "system": "http://www.ama-assn.org/go/cpt",
          "version": "2020",
          "code": "45378",
          "display": "Colonoscopy, flexible; diagnostic, including collection of specimen(s) by brushing or washing, when performed (separate procedure)"
        }, {
          "system": "http://www.ama-assn.org/go/cpt",
          "version": "2020",
          "code": "45379",
          "display": "Colonoscopy, flexible; with removal of foreign body(s)"
        }, {
          "system": "http://www.ama-assn.org/go/cpt",
          "version": "2020",
          "code": "45380",
          "display": "Colonoscopy, flexible; with biopsy, single or multiple"
        }, {
          "system": "http://www.ama-assn.org/go/cpt",
          "version": "2020",
          "code": "45381",
          "display": "Colonoscopy, flexible; with directed submucosal injection(s), any substance"
        }, {
          "system": "http://www.ama-assn.org/go/cpt",
          "version": "2020",
          "code": "45382",
          "display": "Colonoscopy, flexible; with control of bleeding, any method"
        }, {
          "system": "http://www.ama-assn.org/go/cpt",
          "version": "2020",
          "code": "45384",
          "display": "Colonoscopy, flexible; with removal of tumor(s), polyp(s), or other lesion(s) by hot biopsy forceps"
        }, {
          "system": "http://www.ama-assn.org/go/cpt",
          "version": "2020",
          "code": "45385",
          "display": "Colonoscopy, flexible; with removal of tumor(s), polyp(s), or other lesion(s) by snare technique"
        }, {
          "system": "http://www.ama-assn.org/go/cpt",
          "version": "2020",
          "code": "45386",
          "display": "Colonoscopy, flexible; with transendoscopic balloon dilation"
        }, {
          "system": "http://www.ama-assn.org/go/cpt",
          "version": "2020",
          "code": "45388",
          "display": "Colonoscopy, flexible; with ablation of tumor(s), polyp(s), or other lesion(s) (includes pre- and post-dilation and guide wire passage, when performed)"
        }, {
          "system": "http://www.ama-assn.org/go/cpt",
          "version": "2020",
          "code": "45389",
          "display": "Colonoscopy, flexible; with endoscopic stent placement (includes pre- and post-dilation and guide wire passage, when performed)"
        }, {
          "system": "http://www.ama-assn.org/go/cpt",
          "version": "2020",
          "code": "45390",
          "display": "Colonoscopy, flexible; with endoscopic mucosal resection"
        }, {
          "system": "http://www.ama-assn.org/go/cpt",
          "version": "2020",
          "code": "45391",
          "display": "Colonoscopy, flexible; with endoscopic ultrasound examination limited to the rectum, sigmoid, descending, transverse, or ascending colon and cecum, and adjacent structures"
        }, {
          "system": "http://www.ama-assn.org/go/cpt",
          "version": "2020",
          "code": "45392",
          "display": "Colonoscopy, flexible; with transendoscopic ultrasound guided intramural or transmural fine needle aspiration/biopsy(s), includes endoscopic ultrasound examination limited to the rectum, sigmoid, descending, transverse, or ascending colon and cecum, and adjacent structures"
        }, {
          "system": "http://www.ama-assn.org/go/cpt",
          "version": "2020",
          "code": "45393",
          "display": "Colonoscopy, flexible; with decompression (for pathologic distention) (eg, volvulus, megacolon), including placement of decompression tube, when performed"
        }, {
          "system": "http://www.ama-assn.org/go/cpt",
          "version": "2020",
          "code": "45398",
          "display": "Colonoscopy, flexible; with band ligation(s) (eg, hemorrhoids)"
        }, {
          "system": "urn:oid:2.16.840.1.113883.6.285",
          "version": "2020",
          "code": "G0105",
          "display": "Colorectal cancer screening; colonoscopy on individual at high risk"
        }, {
          "system": "urn:oid:2.16.840.1.113883.6.285",
          "version": "2020",
          "code": "G0121",
          "display": "Colorectal cancer screening; colonoscopy on individual not meeting criteria for high risk"
        }, {
          "system": "http://snomed.info/sct",
          "version": "2019-09",
          "code": "12350003",
          "display": "Colonoscopy with rigid sigmoidoscope through colotomy (procedure)"
        }, {
          "system": "http://snomed.info/sct",
          "version": "2019-09",
          "code": "174158000",
          "display": "Open colonoscopy (procedure)"
        }, {
          "system": "http://snomed.info/sct",
          "version": "2019-09",
          "code": "235150006",
          "display": "Total colonoscopy (procedure)"
        }, {
          "system": "http://snomed.info/sct",
          "version": "2019-09",
          "code": "235151005",
          "display": "Limited colonoscopy (procedure)"
        }, {
          "system": "http://snomed.info/sct",
          "version": "2019-09",
          "code": "25732003",
          "display": "Fiberoptic colonoscopy with biopsy (procedure)"
        }, {
          "system": "http://snomed.info/sct",
          "version": "2019-09",
          "code": "310634005",
          "display": "Check colonoscopy (procedure)"
        }, {
          "system": "http://snomed.info/sct",
          "version": "2019-09",
          "code": "34264006",
          "display": "Intraoperative colonoscopy (procedure)"
        }, {
          "system": "http://snomed.info/sct",
          "version": "2019-09",
          "code": "367535003",
          "display": "Fiberoptic colonoscopy (procedure)"
        }, {
          "system": "http://snomed.info/sct",
          "version": "2019-09",
          "code": "425672002",
          "display": "Diagnostic endoscopic examination of ileoanal pouch and biopsy of ileoanal pouch using colonoscope (procedure)"
        }, {
          "system": "http://snomed.info/sct",
          "version": "2019-09",
          "code": "425937002",
          "display": "Diagnostic endoscopic examination of enteric pouch using colonoscope (procedure)"
        }, {
          "system": "http://snomed.info/sct",
          "version": "2019-09",
          "code": "427459009",
          "display": "Diagnostic endoscopic examination of colonic pouch and biopsy of colonic pouch using colonoscope (procedure)"
        }, {
          "system": "http://snomed.info/sct",
          "version": "2019-09",
          "code": "443998000",
          "display": "Colonoscopy through colostomy with endoscopic biopsy of colon (procedure)"
        }, {
          "system": "http://snomed.info/sct",
          "version": "2019-09",
          "code": "444783004",
          "display": "Screening colonoscopy (procedure)"
        }, {
          "system": "http://snomed.info/sct",
          "version": "2019-09",
          "code": "446521004",
          "display": "Colonoscopy and excision of mucosa of colon (procedure)"
        }, {
          "system": "http://snomed.info/sct",
          "version": "2019-09",
          "code": "446745002",
          "display": "Colonoscopy and biopsy of colon (procedure)"
        }, {
          "system": "http://snomed.info/sct",
          "version": "2019-09",
          "code": "447021001",
          "display": "Colonoscopy and tattooing (procedure)"
        }, {
          "system": "http://snomed.info/sct",
          "version": "2019-09",
          "code": "709421007",
          "display": "Colonoscopy and dilatation of stricture of colon (procedure)"
        }, {
          "system": "http://snomed.info/sct",
          "version": "2019-09",
          "code": "710293001",
          "display": "Colonoscopy using fluoroscopic guidance (procedure)"
        }, {
          "system": "http://snomed.info/sct",
          "version": "2019-09",
          "code": "711307001",
          "display": "Colonoscopy using X-ray guidance (procedure)"
        }, {
          "system": "http://snomed.info/sct",
          "version": "2019-09",
          "code": "713154003",
          "display": "Endoscopic submucosal dissection of rectum using colonoscope (procedure)"
        }, {
          "system": "http://snomed.info/sct",
          "version": "2019-09",
          "code": "73761001",
          "display": "Colonoscopy (procedure)"
        }, {
          "system": "http://snomed.info/sct",
          "version": "2019-09",
          "code": "8180007",
          "display": "Fiberoptic colonoscopy through colostomy (procedure)"
        }, {
          "system": "http://snomed.info/sct",
          "version": "2019-09",
          "code": "851000119109",
          "display": "History of colonoscopy (situation)"
        } ]
      }
    },
    "request": {
      "method": "PUT",
      "url": "ValueSet/2.16.840.1.113883.3.464.1003.108.12.1020"
    }
  }, {
    "resource": {
      "resourceType": "Library",
      "id": "FHIRCommon",
      "meta": {
        "profile": [ "http://hl7.org/fhir/uv/cpg/StructureDefinition/cpg-shareablelibrary", "http://hl7.org/fhir/uv/cpg/StructureDefinition/cpg-computablelibrary", "http://hl7.org/fhir/uv/cpg/StructureDefinition/cpg-publishablelibrary", "http://hl7.org/fhir/uv/cpg/StructureDefinition/cpg-executablelibrary" ]
      },
      "extension": [ {
        "url": "http://hl7.org/fhir/uv/cpg/StructureDefinition/cpg-knowledgeCapability",
        "valueCode": "shareable"
      }, {
        "url": "http://hl7.org/fhir/uv/cpg/StructureDefinition/cpg-knowledgeCapability",
        "valueCode": "computable"
      }, {
        "url": "http://hl7.org/fhir/uv/cpg/StructureDefinition/cpg-knowledgeCapability",
        "valueCode": "publishable"
      }, {
        "url": "http://hl7.org/fhir/uv/cpg/StructureDefinition/cpg-knowledgeCapability",
        "valueCode": "executable"
      }, {
        "url": "http://hl7.org/fhir/uv/cpg/StructureDefinition/cpg-knowledgeRepresentationLevel",
        "valueCode": "structured"
      }, {
        "url": "http://hl7.org/fhir/us/cqfmeasures/StructureDefinition/cqfm-softwaresystem",
        "valueReference": {
          "reference": "Device/cqf-tooling"
        }
      } ],
      "url": "http://fhir.org/guides/cqf/ccc/Library/FHIRCommon",
      "version": "4.0.1",
      "name": "FHIRCommon",
      "title": "FHIR Common",
      "status": "active",
      "experimental": false,
      "type": {
        "coding": [ {
          "system": "http://terminology.hl7.org/CodeSystem/library-type",
          "code": "logic-library"
        } ]
      },
      "date": "2020-11-29T15:54:22-07:00",
      "description": "This library defines terminologies and functions commonly used in FHIR-based CQL artifacts.",
      "approvalDate": "2021-03-12",
      "lastReviewDate": "2021-03-12",
      "topic": [ {
        "text": "FHIR"
      }, {
        "text": "CQL"
      } ],
      "relatedArtifact": [ {
        "type": "depends-on",
        "display": "FHIR model information",
        "resource": "http://fhir.org/guides/cqf/common/Library/FHIR-ModelInfo|4.0.1"
      }, {
        "type": "depends-on",
        "display": "Library FHIRHelpers",
        "resource": "http://fhir.org/guides/cqf/ccc/Library/FHIRHelpers|4.0.1"
      }, {
        "type": "depends-on",
        "display": "Code system LOINC",
        "resource": "http://loinc.org"
      }, {
        "type": "depends-on",
        "display": "Code system SNOMEDCT",
        "resource": "http://snomed.info/sct"
      }, {
        "type": "depends-on",
        "display": "Code system RoleCode",
        "resource": "http://terminology.hl7.org/CodeSystem/v3-RoleCode"
      }, {
        "type": "depends-on",
        "display": "Code system Diagnosis Role",
        "resource": "http://terminology.hl7.org/CodeSystem/diagnosis-role"
      }, {
        "type": "depends-on",
        "display": "Code system RequestIntent",
        "resource": "http://terminology.hl7.org/CodeSystem/request-intent"
      }, {
        "type": "depends-on",
        "display": "Code system MedicationRequestCategory",
        "resource": "http://terminology.hl7.org/CodeSystem/medicationrequest-category"
      }, {
        "type": "depends-on",
        "display": "Code system ConditionClinicalStatusCodes",
        "resource": "http://terminology.hl7.org/CodeSystem/condition-clinical"
      }, {
        "type": "depends-on",
        "display": "Code system ConditionVerificationStatusCodes",
        "resource": "http://terminology.hl7.org/CodeSystem/condition-ver-status"
      }, {
        "type": "depends-on",
        "display": "Code system AllergyIntoleranceClinicalStatusCodes",
        "resource": "http://terminology.hl7.org/CodeSystem/allergyintolerance-clinical"
      }, {
        "type": "depends-on",
        "display": "Code system AllergyIntoleranceVerificationStatusCodes",
        "resource": "http://terminology.hl7.org/CodeSystem/allergyintolerance-verification"
      }, {
        "type": "depends-on",
        "display": "Value set Active Condition",
        "resource": "http://fhir.org/guides/cqf/common/ValueSet/active-condition"
      }, {
        "type": "depends-on",
        "display": "Value set Inactive Condition",
        "resource": "http://fhir.org/guides/cqf/common/ValueSet/inactive-condition"
      } ],
      "parameter": [ {
        "name": "Patient",
        "use": "out",
        "min": 0,
        "max": "1",
        "type": "Patient"
      } ],
      "dataRequirement": [ {
        "type": "Patient",
        "profile": [ "http://hl7.org/fhir/StructureDefinition/Patient" ]
      } ],
      "content": [ {
        "contentType": "text/cql",
        "data": ""
      }, {
        "contentType": "application/elm+xml",
        "data": ""
      }, {
        "contentType": "application/elm+json",
        "data": ""
      } ]
    },
    "request": {
      "method": "PUT",
      "url": "Library/FHIRCommon"
    }
  }, {
    "resource": {
      "resourceType": "ValueSet",
      "id": "2.16.840.1.113883.3.464.1003.108.12.1001",
      "url": "http://cts.nlm.nih.gov/fhir/ValueSet/2.16.840.1.113883.3.464.1003.108.12.1001",
      "identifier": [ {
        "system": "urn:ietf:rfc:3986",
        "value": "2.16.840.1.113883.3.464.1003.108.12.1001"
      } ],
      "version": "20171222",
      "name": "MalignantNeoplasmofColon",
      "title": "Malignant Neoplasm of Colon",
      "status": "active",
      "experimental": false,
      "publisher": "NLM",
      "expansion": {
        "identifier": "20200507",
        "timestamp": "2021-01-14T20:59:46-07:00",
        "contains": [ {
          "system": "http://hl7.org/fhir/sid/icd-10-cm",
          "version": "2020",
          "code": "C18.0",
          "display": "Malignant neoplasm of cecum"
        }, {
          "system": "http://hl7.org/fhir/sid/icd-10-cm",
          "version": "2020",
          "code": "C18.1",
          "display": "Malignant neoplasm of appendix"
        }, {
          "system": "http://hl7.org/fhir/sid/icd-10-cm",
          "version": "2020",
          "code": "C18.2",
          "display": "Malignant neoplasm of ascending colon"
        }, {
          "system": "http://hl7.org/fhir/sid/icd-10-cm",
          "version": "2020",
          "code": "C18.3",
          "display": "Malignant neoplasm of hepatic flexure"
        }, {
          "system": "http://hl7.org/fhir/sid/icd-10-cm",
          "version": "2020",
          "code": "C18.4",
          "display": "Malignant neoplasm of transverse colon"
        }, {
          "system": "http://hl7.org/fhir/sid/icd-10-cm",
          "version": "2020",
          "code": "C18.5",
          "display": "Malignant neoplasm of splenic flexure"
        }, {
          "system": "http://hl7.org/fhir/sid/icd-10-cm",
          "version": "2020",
          "code": "C18.6",
          "display": "Malignant neoplasm of descending colon"
        }, {
          "system": "http://hl7.org/fhir/sid/icd-10-cm",
          "version": "2020",
          "code": "C18.7",
          "display": "Malignant neoplasm of sigmoid colon"
        }, {
          "system": "http://hl7.org/fhir/sid/icd-10-cm",
          "version": "2020",
          "code": "C18.8",
          "display": "Malignant neoplasm of overlapping sites of colon"
        }, {
          "system": "http://hl7.org/fhir/sid/icd-10-cm",
          "version": "2020",
          "code": "C18.9",
          "display": "Malignant neoplasm of colon, unspecified"
        }, {
          "system": "http://hl7.org/fhir/sid/icd-10-cm",
          "version": "2020",
          "code": "C19",
          "display": "Malignant neoplasm of rectosigmoid junction"
        }, {
          "system": "http://hl7.org/fhir/sid/icd-10-cm",
          "version": "2020",
          "code": "C20",
          "display": "Malignant neoplasm of rectum"
        }, {
          "system": "http://hl7.org/fhir/sid/icd-10-cm",
          "version": "2020",
          "code": "C21.2",
          "display": "Malignant neoplasm of cloacogenic zone"
        }, {
          "system": "http://hl7.org/fhir/sid/icd-10-cm",
          "version": "2020",
          "code": "C21.8",
          "display": "Malignant neoplasm of overlapping sites of rectum, anus and anal canal"
        }, {
          "system": "http://hl7.org/fhir/sid/icd-10-cm",
          "version": "2020",
          "code": "C78.5",
          "display": "Secondary malignant neoplasm of large intestine and rectum"
        }, {
          "system": "http://terminology.hl7.org/CodeSystem/icd9cm",
          "version": "2013",
          "code": "153.0",
          "display": "Malignant neoplasm of hepatic flexure"
        }, {
          "system": "http://terminology.hl7.org/CodeSystem/icd9cm",
          "version": "2013",
          "code": "153.1",
          "display": "Malignant neoplasm of transverse colon"
        }, {
          "system": "http://terminology.hl7.org/CodeSystem/icd9cm",
          "version": "2013",
          "code": "153.2",
          "display": "Malignant neoplasm of descending colon"
        }, {
          "system": "http://terminology.hl7.org/CodeSystem/icd9cm",
          "version": "2013",
          "code": "153.3",
          "display": "Malignant neoplasm of sigmoid colon"
        }, {
          "system": "http://terminology.hl7.org/CodeSystem/icd9cm",
          "version": "2013",
          "code": "153.4",
          "display": "Malignant neoplasm of cecum"
        }, {
          "system": "http://terminology.hl7.org/CodeSystem/icd9cm",
          "version": "2013",
          "code": "153.5",
          "display": "Malignant neoplasm of appendix vermiformis"
        }, {
          "system": "http://terminology.hl7.org/CodeSystem/icd9cm",
          "version": "2013",
          "code": "153.6",
          "display": "Malignant neoplasm of ascending colon"
        }, {
          "system": "http://terminology.hl7.org/CodeSystem/icd9cm",
          "version": "2013",
          "code": "153.7",
          "display": "Malignant neoplasm of splenic flexure"
        }, {
          "system": "http://terminology.hl7.org/CodeSystem/icd9cm",
          "version": "2013",
          "code": "153.8",
          "display": "Malignant neoplasm of other specified sites of large intestine"
        }, {
          "system": "http://terminology.hl7.org/CodeSystem/icd9cm",
          "version": "2013",
          "code": "153.9",
          "display": "Malignant neoplasm of colon, unspecified site"
        }, {
          "system": "http://terminology.hl7.org/CodeSystem/icd9cm",
          "version": "2013",
          "code": "154.0",
          "display": "Malignant neoplasm of rectosigmoid junction"
        }, {
          "system": "http://terminology.hl7.org/CodeSystem/icd9cm",
          "version": "2013",
          "code": "154.1",
          "display": "Malignant neoplasm of rectum"
        }, {
          "system": "http://terminology.hl7.org/CodeSystem/icd9cm",
          "version": "2013",
          "code": "197.5",
          "display": "Secondary malignant neoplasm of large intestine and rectum"
        }, {
          "system": "http://snomed.info/sct",
          "version": "2019-03",
          "code": "716654007",
          "display": "Non-polyposis Turcot syndrome (disorder)"
        }, {
          "system": "http://snomed.info/sct",
          "version": "2019-09",
          "code": "109838007",
          "display": "Overlapping malignant neoplasm of colon (disorder)"
        }, {
          "system": "http://snomed.info/sct",
          "version": "2019-09",
          "code": "130381000119103",
          "display": "Primary malignant neuroendocrine neoplasm of ascending colon (disorder)"
        }, {
          "system": "http://snomed.info/sct",
          "version": "2019-09",
          "code": "133751000119102",
          "display": "Lymphoma of colon (disorder)"
        }, {
          "system": "http://snomed.info/sct",
          "version": "2019-09",
          "code": "1701000119104",
          "display": "Primary adenocarcinoma of colon (disorder)"
        }, {
          "system": "http://snomed.info/sct",
          "version": "2019-09",
          "code": "184881000119106",
          "display": "Primary adenocarcinoma of rectosigmoid junction (disorder)"
        }, {
          "system": "http://snomed.info/sct",
          "version": "2019-09",
          "code": "187757001",
          "display": "Malignant neoplasm, overlapping lesion of colon (disorder)"
        }, {
          "system": "http://snomed.info/sct",
          "version": "2019-09",
          "code": "269533000",
          "display": "Carcinoma of colon (disorder)"
        }, {
          "system": "http://snomed.info/sct",
          "version": "2019-09",
          "code": "269544008",
          "display": "Carcinoma of the rectosigmoid junction (disorder)"
        }, {
          "system": "http://snomed.info/sct",
          "version": "2019-09",
          "code": "285312008",
          "display": "Carcinoma of sigmoid colon (disorder)"
        }, {
          "system": "http://snomed.info/sct",
          "version": "2019-09",
          "code": "285611007",
          "display": "Metastasis to colon of unknown primary (disorder)"
        }, {
          "system": "http://snomed.info/sct",
          "version": "2019-09",
          "code": "301756000",
          "display": "Adenocarcinoma of sigmoid colon (disorder)"
        }, {
          "system": "http://snomed.info/sct",
          "version": "2019-09",
          "code": "312111009",
          "display": "Carcinoma of ascending colon (disorder)"
        }, {
          "system": "http://snomed.info/sct",
          "version": "2019-09",
          "code": "312112002",
          "display": "Carcinoma of transverse colon (disorder)"
        }, {
          "system": "http://snomed.info/sct",
          "version": "2019-09",
          "code": "312113007",
          "display": "Carcinoma of descending colon (disorder)"
        }, {
          "system": "http://snomed.info/sct",
          "version": "2019-09",
          "code": "312114001",
          "display": "Carcinoma of hepatic flexure (disorder)"
        }, {
          "system": "http://snomed.info/sct",
          "version": "2019-09",
          "code": "312115000",
          "display": "Carcinoma of splenic flexure (disorder)"
        }, {
          "system": "http://snomed.info/sct",
          "version": "2019-09",
          "code": "314965007",
          "display": "Local recurrence of malignant tumor of colon (disorder)"
        }, {
          "system": "http://snomed.info/sct",
          "version": "2019-09",
          "code": "315058005",
          "display": "Hereditary nonpolyposis colon cancer (disorder)"
        }, {
          "system": "http://snomed.info/sct",
          "version": "2019-09",
          "code": "363406005",
          "display": "Malignant neoplasm of colon (disorder)"
        }, {
          "system": "http://snomed.info/sct",
          "version": "2019-09",
          "code": "363407001",
          "display": "Malignant tumor of hepatic flexure (disorder)"
        }, {
          "system": "http://snomed.info/sct",
          "version": "2019-09",
          "code": "363408006",
          "display": "Malignant tumor of transverse colon (disorder)"
        }, {
          "system": "http://snomed.info/sct",
          "version": "2019-09",
          "code": "363409003",
          "display": "Malignant tumor of descending colon (disorder)"
        }, {
          "system": "http://snomed.info/sct",
          "version": "2019-09",
          "code": "363410008",
          "display": "Malignant tumor of sigmoid colon (disorder)"
        }, {
          "system": "http://snomed.info/sct",
          "version": "2019-09",
          "code": "363412000",
          "display": "Malignant tumor of ascending colon (disorder)"
        }, {
          "system": "http://snomed.info/sct",
          "version": "2019-09",
          "code": "363413005",
          "display": "Malignant tumor of splenic flexure (disorder)"
        }, {
          "system": "http://snomed.info/sct",
          "version": "2019-09",
          "code": "363414004",
          "display": "Malignant tumor of rectosigmoid junction (disorder)"
        }, {
          "system": "http://snomed.info/sct",
          "version": "2019-09",
          "code": "363510005",
          "display": "Malignant tumor of large intestine (disorder)"
        }, {
          "system": "http://snomed.info/sct",
          "version": "2019-09",
          "code": "425178004",
          "display": "Adenocarcinoma of rectosigmoid junction (disorder)"
        }, {
          "system": "http://snomed.info/sct",
          "version": "2019-09",
          "code": "449218003",
          "display": "Lymphoma of sigmoid colon (disorder)"
        }, {
          "system": "http://snomed.info/sct",
          "version": "2019-09",
          "code": "681601000119101",
          "display": "Primary adenocarcinoma of ascending colon (disorder)"
        }, {
          "system": "http://snomed.info/sct",
          "version": "2019-09",
          "code": "721695008",
          "display": "Primary adenocarcinoma of ascending colon and right flexure (disorder)"
        }, {
          "system": "http://snomed.info/sct",
          "version": "2019-09",
          "code": "721696009",
          "display": "Primary adenocarcinoma of transverse colon (disorder)"
        }, {
          "system": "http://snomed.info/sct",
          "version": "2019-09",
          "code": "721699002",
          "display": "Primary adenocarcinoma of descending colon and splenic flexure (disorder)"
        }, {
          "system": "http://snomed.info/sct",
          "version": "2019-09",
          "code": "737058005",
          "display": "Microsatellite instability-high colorectal cancer (disorder)"
        }, {
          "system": "http://snomed.info/sct",
          "version": "2019-09",
          "code": "766981007",
          "display": "Squamous cell carcinoma of colon (disorder)"
        }, {
          "system": "http://snomed.info/sct",
          "version": "2019-09",
          "code": "93761005",
          "display": "Primary malignant neoplasm of colon (disorder)"
        }, {
          "system": "http://snomed.info/sct",
          "version": "2019-09",
          "code": "93771007",
          "display": "Primary malignant neoplasm of descending colon (disorder)"
        }, {
          "system": "http://snomed.info/sct",
          "version": "2019-09",
          "code": "93826009",
          "display": "Primary malignant neoplasm of hepatic flexure of colon (disorder)"
        }, {
          "system": "http://snomed.info/sct",
          "version": "2019-09",
          "code": "93980002",
          "display": "Primary malignant neoplasm of rectosigmoid junction (disorder)"
        }, {
          "system": "http://snomed.info/sct",
          "version": "2019-09",
          "code": "94006002",
          "display": "Primary malignant neoplasm of sigmoid colon (disorder)"
        }, {
          "system": "http://snomed.info/sct",
          "version": "2019-09",
          "code": "94072004",
          "display": "Primary malignant neoplasm of splenic flexure of colon (disorder)"
        }, {
          "system": "http://snomed.info/sct",
          "version": "2019-09",
          "code": "94105000",
          "display": "Primary malignant neoplasm of transverse colon (disorder)"
        }, {
          "system": "http://snomed.info/sct",
          "version": "2019-09",
          "code": "94179005",
          "display": "Secondary malignant neoplasm of ascending colon (disorder)"
        }, {
          "system": "http://snomed.info/sct",
          "version": "2019-09",
          "code": "94260004",
          "display": "Secondary malignant neoplasm of colon (disorder)"
        }, {
          "system": "http://snomed.info/sct",
          "version": "2019-09",
          "code": "94271003",
          "display": "Secondary malignant neoplasm of descending colon (disorder)"
        }, {
          "system": "http://snomed.info/sct",
          "version": "2019-09",
          "code": "94328005",
          "display": "Secondary malignant neoplasm of hepatic flexure of colon (disorder)"
        }, {
          "system": "http://snomed.info/sct",
          "version": "2019-09",
          "code": "94509004",
          "display": "Secondary malignant neoplasm of rectosigmoid junction (disorder)"
        }, {
          "system": "http://snomed.info/sct",
          "version": "2019-09",
          "code": "94538001",
          "display": "Secondary malignant neoplasm of sigmoid colon (disorder)"
        }, {
          "system": "http://snomed.info/sct",
          "version": "2019-09",
          "code": "94604000",
          "display": "Secondary malignant neoplasm of splenic flexure of colon (disorder)"
        }, {
          "system": "http://snomed.info/sct",
          "version": "2019-09",
          "code": "94643001",
          "display": "Secondary malignant neoplasm of transverse colon (disorder)"
        }, {
          "system": "http://snomed.info/sct",
          "version": "2019-09",
          "code": "96281000119107",
          "display": "Overlapping malignant neoplasm of colon and rectum (disorder)"
        }, {
          "system": "http://snomed.info/sct",
          "version": "2019-09",
          "code": "96981000119102",
          "display": "Malignant neoplasm of rectosigmoid junction metastatic to brain (disorder)"
        } ]
      }
    },
    "request": {
      "method": "PUT",
      "url": "ValueSet/2.16.840.1.113883.3.464.1003.108.12.1001"
    }
  }, {
    "resource": {
      "resourceType": "Library",
      "id": "ColorectalCancerScreeningCDS",
      "meta": {
        "profile": [ "http://hl7.org/fhir/uv/cpg/StructureDefinition/cpg-shareablelibrary", "http://hl7.org/fhir/uv/cpg/StructureDefinition/cpg-computablelibrary", "http://hl7.org/fhir/uv/cpg/StructureDefinition/cpg-publishablelibrary", "http://hl7.org/fhir/uv/cpg/StructureDefinition/cpg-executablelibrary" ]
      },
      "extension": [ {
        "url": "http://hl7.org/fhir/uv/cpg/StructureDefinition/cpg-knowledgeCapability",
        "valueCode": "shareable"
      }, {
        "url": "http://hl7.org/fhir/uv/cpg/StructureDefinition/cpg-knowledgeCapability",
        "valueCode": "computable"
      }, {
        "url": "http://hl7.org/fhir/uv/cpg/StructureDefinition/cpg-knowledgeCapability",
        "valueCode": "publishable"
      }, {
        "url": "http://hl7.org/fhir/uv/cpg/StructureDefinition/cpg-knowledgeCapability",
        "valueCode": "executable"
      }, {
        "url": "http://hl7.org/fhir/uv/cpg/StructureDefinition/cpg-knowledgeRepresentationLevel",
        "valueCode": "structured"
      }, {
        "url": "http://hl7.org/fhir/us/cqfmeasures/StructureDefinition/cqfm-softwaresystem",
        "valueReference": {
          "reference": "Device/cqf-tooling"
        }
      } ],
      "url": "http://fhir.org/guides/cqf/ccc/Library/ColorectalCancerScreeningCDS",
      "version": "0.1.0",
      "name": "ColorectalCancerScreeningCDS",
      "title": "Colorectal Cancer Screening CDS",
      "status": "active",
      "experimental": false,
      "type": {
        "coding": [ {
          "system": "http://terminology.hl7.org/CodeSystem/library-type",
          "code": "logic-library"
        } ]
      },
      "date": "2020-11-29T15:54:22-07:00",
      "description": "Colorectal Cancer Screening CDS",
      "approvalDate": "2021-03-12",
      "lastReviewDate": "2021-03-12",
      "topic": [ {
        "text": "FHIR"
      }, {
        "text": "CQL"
      } ],
      "relatedArtifact": [ {
        "type": "depends-on",
        "display": "FHIR model information",
        "resource": "http://fhir.org/guides/cqf/common/Library/FHIR-ModelInfo|4.0.1"
      }, {
        "type": "depends-on",
        "display": "Library FHIRHelpers",
        "resource": "http://fhir.org/guides/cqf/ccc/Library/FHIRHelpers|4.0.1"
      }, {
        "type": "depends-on",
        "display": "Library FC",
        "resource": "http://fhir.org/guides/cqf/ccc/Library/FHIRCommon|4.0.1"
      }, {
        "type": "depends-on",
        "display": "Library CCE",
        "resource": "http://fhir.org/guides/cqf/ccc/Library/ColorectalCancerElements"
      }, {
        "type": "depends-on",
        "display": "Library Cx",
        "resource": "http://fhir.org/guides/cqf/ccc/Library/ColorectalCancerConcepts"
      }, {
        "type": "depends-on",
        "display": "Code system ConditionVerificationStatusCodes",
        "resource": "http://terminology.hl7.org/CodeSystem/condition-ver-status"
      }, {
        "type": "depends-on",
        "display": "Value set Fecal Occult Blood Test (FOBT)",
        "resource": "http://cts.nlm.nih.gov/fhir/ValueSet/2.16.840.1.113883.3.464.1003.198.12.1011"
      }, {
        "type": "depends-on",
        "display": "Value set FIT DNA",
        "resource": "http://cts.nlm.nih.gov/fhir/ValueSet/2.16.840.1.113883.3.464.1003.108.12.1039"
      }, {
        "type": "depends-on",
        "display": "Value set CT Colonography",
        "resource": "http://cts.nlm.nih.gov/fhir/ValueSet/2.16.840.1.113883.3.464.1003.108.12.1038"
      }, {
        "type": "depends-on",
        "display": "Value set Flexible Sigmoidoscopy",
        "resource": "http://cts.nlm.nih.gov/fhir/ValueSet/2.16.840.1.113883.3.464.1003.198.12.1010"
      }, {
        "type": "depends-on",
        "display": "Value set Colonoscopy",
        "resource": "http://cts.nlm.nih.gov/fhir/ValueSet/2.16.840.1.113883.3.464.1003.108.12.1020"
      }, {
        "type": "depends-on",
        "display": "Value set Malignant Neoplasm of Colon",
        "resource": "http://cts.nlm.nih.gov/fhir/ValueSet/2.16.840.1.113883.3.464.1003.108.12.1001"
      }, {
        "type": "depends-on",
        "display": "Value set Active Condition",
        "resource": "http://fhir.org/guides/cqf/common/ValueSet/active-condition"
      }, {
        "type": "depends-on",
        "display": "Value set Total Colectomy",
        "resource": "http://cts.nlm.nih.gov/fhir/ValueSet/2.16.840.1.113883.3.464.1003.198.12.1019"
      } ],
      "parameter": [ {
        "name": "Measurement Period",
        "use": "in",
        "min": 0,
        "max": "1",
        "type": "Period"
      }, {
        "name": "Patient",
        "use": "out",
        "min": 0,
        "max": "1",
        "type": "Patient"
      }, {
        "name": "Is Recommendation Applicable",
        "use": "out",
        "min": 0,
        "max": "1",
        "type": "boolean"
      }, {
        "name": "Get Card Summary",
        "use": "out",
        "min": 0,
        "max": "1",
        "type": "string"
      }, {
        "name": "Rationale",
        "use": "out",
        "min": 0,
        "max": "1",
        "type": "string"
      }, {
        "name": "Get Card Detail",
        "use": "out",
        "min": 0,
        "max": "1",
        "type": "string"
      }, {
        "name": "Get Card Indicator",
        "use": "out",
        "min": 0,
        "max": "1",
        "type": "string"
      } ],
      "dataRequirement": [ {
        "type": "Patient",
        "profile": [ "http://hl7.org/fhir/StructureDefinition/Patient" ]
      } ],
      "content": [ {
        "contentType": "text/cql",
        "data": ""
      }, {
        "contentType": "application/elm+xml",
        "data": ""
      }, {
        "contentType": "application/elm+json",
        "data": ""
      } ]
    },
    "request": {
      "method": "PUT",
      "url": "Library/ColorectalCancerScreeningCDS"
    }
  }, {
    "resource": {
      "resourceType": "ValueSet",
      "id": "active-condition",
      "meta": {
        "profile": [ "http://hl7.org/fhir/uv/cpg/StructureDefinition/cpg-publishablevalueset" ]
      },
      "extension": [ {
        "url": "http://hl7.org/fhir/uv/cpg/StructureDefinition/cpg-knowledgeCapability",
        "valueCode": "shareable"
      }, {
        "url": "http://hl7.org/fhir/uv/cpg/StructureDefinition/cpg-knowledgeCapability",
        "valueCode": "computable"
      }, {
        "url": "http://hl7.org/fhir/uv/cpg/StructureDefinition/cpg-knowledgeCapability",
        "valueCode": "publishable"
      }, {
        "url": "http://hl7.org/fhir/uv/cpg/StructureDefinition/cpg-knowledgeRepresentationLevel",
        "valueCode": "structured"
      }, {
        "url": "http://hl7.org/fhir/StructureDefinition/valueset-author",
        "valueContactDetail": {
          "name": "Bryn Rhodes"
        }
      } ],
      "url": "http://fhir.org/guides/cqf/common/ValueSet/active-condition",
      "version": "0.1.0",
      "name": "CQFActiveCondition",
      "title": "CQF Active Condition",
      "status": "active",
      "experimental": false,
      "date": "2019-07-21",
      "publisher": "Health Level 7 International - Clinical Decision Support WG",
      "contact": [ {
        "telecom": [ {
          "system": "url",
          "value": "http://www.hl7.org/Special/committees/dss/index.cfm"
        } ]
      } ],
      "description": "Active condition clinical status codes",
      "purpose": "Used to specify the set of clinical status codes that are considered active",
      "copyright": "© HL7 2016+.",
      "compose": {
        "include": [ {
          "system": "http://terminology.hl7.org/CodeSystem/condition-clinical",
          "concept": [ {
            "code": "active",
            "display": "Active"
          }, {
            "code": "recurrence",
            "display": "Recurrence"
          }, {
            "code": "relapse",
            "display": "Relapse"
          } ]
        } ]
      }
    },
    "request": {
      "method": "PUT",
      "url": "ValueSet/active-condition"
    }
  } ]
}