{
	"resourceType": "CarePlan",
	"contained": [
	  {
		"resourceType": "RequestGroup",
		"id": "ChildRoutineVisit-PlanDefinition-1.0.0",
		"definition": [
		  { "reference": "http://fhir.org/guides/cdc/opioid-cds/PlanDefinition/ChildRoutineVisit-PlanDefinition-1.0.0" }
		],
		"status": "draft",
		"intent": "proposal",
		"subject": {
		  "reference": "Patient/ChildRoutine-Reportable"
		}
	  },
	  {
		"resourceType": "Goal",
		"id": "1",
		"category": [
		  {
			"coding": [
			  {
				"system": "https://www.hl7.org/fhir/codesystem-goal-category.html",
				"code": "nursing",
				"display": "Nursing"
			  }
			]
		  }
		],
		"priority": {
		  "coding": [
			{
			  "system": "https://www.hl7.org/fhir/codesystem-goal-priority.html",
			  "code": "high-priority",
			  "display": "High Priority"
			}
		  ]
		},
		"startCodeableConcept": {
		  "coding": [
			{
			  "system": "http://www.snomed.org/",
			  "code": "32485007",
			  "display": "Admission to hospital"
			}
		  ]
		}
	  }
	],
	"definition": [
		{ "reference": "http://fhir.org/guides/cdc/opioid-cds/PlanDefinition/ChildRoutineVisit-PlanDefinition-1.0.0" }
	],
	"status": "draft",
	"intent": "proposal",
	"subject": {
	  "reference": "Patient/ChildRoutine-Reportable"
	},
	"goal": [
	  {
		"reference": "#1"
	  }
	],
	"activity": [
	  {
		"reference": {
		  "reference": "#ChildRoutineVisit-PlanDefinition-1.0.0"
		}
	  }
	]
  }